"accuracy","anzahl_gruppen","avg_rt","blauetaste","block","code","correct","correct_colour","correct_response","correct1","correct2","correct3","count_bildstimulus_3_1","count_block","cutoff","datetime","difficulty","difficulty_f","erstebedingung","experiment_file","filename","height","id_geburtsort","id_jahr","id_vater","linketaste","logfile","loose1","loose2","loose3","orangenetaste","punkte1","punkteimblock","response","response_tasteresponse_3_1","response_time","response_time_tasteresponse_3_1","subject_nr","time_bildershuffle","time_bildstimulus_3_1","time_block","time_block_tut","time_blockwerte_zuruecksetzten","time_cutoff_werte_und_punkte_3_1","time_definecorrectcolour_3_1","time_eingabemaske_kuerzel_python","time_ende_experimentierungsphase","time_ende_tutorial_1","time_experiment","time_feedback_serie","time_feedback_tutorial","time_fixationcross_3_1","time_grauesbild_3_1","time_gruppe_block","time_gruppe_tutorial","time_instruktionen_block","time_instruktionen_tutorial_1","time_introduction_1","time_introduction_2_1","time_introduction_3_punkte","time_introduction_3_speed","time_introduction_4_accuracy","time_introduction_5_feedback","time_leertaste_fuer_naechsten_bildschirm","time_logger_3_1","time_loop_block","time_loop_block_tut","time_minifeedbacknegativ_acc","time_minifeedbacknegativ_speed_slow","time_minifeedbacknegativ_speed_slowandwrong","time_minifeedbacknegativ_speed_wrong","time_minifeedbackpositiv_acc","time_minifeedbackpositiv_speed","time_new_inline_script","time_pause_zwischen_serie_1","time_pause_zwischen_serie_2","time_reset_feedback","time_reset_feedback_1","time_sequenz_block","time_sequenz_block_tut","time_sequenz_block_tut_1","time_sequenz_gruppe","time_sequenz_gruppe_tut","time_sequenz_serie","time_serie","time_set_to_zero","time_start","time_tasteresponse_3_1","time_testloopprepareglitchtutorial","time_trial_3_1","time_tutorial","time_tutorial_ende","time_tutorial_wiederholungscheck","time_vorgeplaenkel","time_warnhinweis_3sek","time_warnhinweis_5sek","time_warnung_tutorial_1","total_correct","total_response_time","total_responses","tutorial","tutorialpunkte"
88.8888888888889,96,105234.176211111,"a","accuracy","ka2000mo","0","o","l","0","0","0",0,1,700,"Tue Mar 21 14:10:22 2023",3,"sehr schwer","accuracy","Experiment.osexp","Bild_s1_o_11.png",1080,"mo",2000,"ka","blaue","C:/Users/steff/Documents/Universität/Master Psychologie/SS 2022/Masterarbeit/Experiment/subject-4.csv",1,0,0,"l",-10,-10,"a","a",939.163200033363,939.163200033363,4,249593.788300001,250445.675000024,NA,231961.394999991,NA,251385.770699999,250137.334800034,44714.6571000339,NA,NA,12681.1599000357,NA,NA,250144.764300028,NA,NA,249594.786100031,NA,232054.856700008,13422.6291000377,63882.762800029,91678.7353000254,129762.063100003,171312.974500004,173677.740400017,232054.964500014,251385.843500029,NA,249593.809800048,NA,NA,NA,NA,NA,NA,NA,NA,NA,NA,NA,NA,231961.212299997,232047.834200028,NA,249594.744100003,NA,NA,NA,12681.3220000477,250445.832700003,12681.3725000247,250137.1239,231960.328800022,NA,NA,13404.8489000415,NA,NA,179693.458200025,8,947107.585899998,9,1,0
80,96,94835.3581600008,"a","accuracy","ka2000mo","0","o","l","0","0","0",1,1,700,"Tue Mar 21 14:10:22 2023",3,"sehr schwer","accuracy","Experiment.osexp","Bild_s1_o_6.png",1080,"mo",2000,"ka","blaue","C:/Users/steff/Documents/Universität/Master Psychologie/SS 2022/Masterarbeit/Experiment/subject-4.csv",1,0,0,"l",-20,-20,"a","a",1245.9957000101,1245.9957000101,4,249593.788300001,252570.980600023,NA,231961.394999991,NA,253817.684700014,252262.962700042,44714.6571000339,NA,NA,12681.1599000357,NA,NA,252269.902800035,251713.923800038,NA,249594.786100031,NA,232054.856700008,13422.6291000377,63882.762800029,91678.7353000254,129762.063100003,171312.974500004,173677.740400017,232054.964500014,253817.757200042,NA,249593.809800048,251413.467900013,NA,NA,NA,NA,NA,NA,NA,NA,NA,NA,NA,231961.212299997,232047.834200028,NA,249594.744100003,NA,NA,251708.532800025,12681.3220000477,252571.065100026,12681.3725000247,252262.797800009,231960.328800022,NA,NA,13404.8489000415,NA,NA,179693.458200025,8,948353.581600008,10,1,0
81.8181818181818,96,86379.0578000004,"a","accuracy","ka2000mo","1","b","a","1","0","0",2,1,700,"Tue Mar 21 14:10:22 2023",2,"eher schwer","accuracy","Experiment.osexp","Bild_s2_b_16.png",1080,"mo",2000,"ka","blaue","C:/Users/steff/Documents/Universität/Master Psychologie/SS 2022/Masterarbeit/Experiment/subject-4.csv",0,0,0,"l",-15,-15,"a","a",1816.05419999687,1816.05419999687,4,249593.788300001,255024.899700016,NA,231961.394999991,NA,256841.625100002,254716.504000011,44714.6571000339,NA,NA,12681.1599000357,NA,NA,254723.309400026,254144.178400049,NA,254213.380500034,NA,232054.856700008,13422.6291000377,63882.762800029,91678.7353000254,129762.063100003,171312.974500004,173677.740400017,232054.964500014,256841.696200019,NA,249593.809800048,253843.919200008,NA,NA,NA,NA,NA,NA,NA,NA,NA,NA,NA,231961.212299997,232047.834200028,NA,254213.31120003,NA,NA,254138.912499999,12681.3220000477,255024.985000025,12681.3725000247,254716.426500003,231960.328800022,NA,NA,13404.8489000415,NA,NA,179693.458200025,9,950169.635800004,11,1,0
83.3333333333333,96,79241.1700083321,"a","accuracy","ka2000mo","1","o","l","1","0","0",3,1,700,"Tue Mar 21 14:10:22 2023",2,"eher schwer","accuracy","Experiment.osexp","Bild_s2_o_23.png",1080,"mo",2000,"ka","blaue","C:/Users/steff/Documents/Universität/Master Psychologie/SS 2022/Masterarbeit/Experiment/subject-4.csv",0,0,0,"l",-10,-10,"l","l",724.404299980961,724.404299980961,4,249593.788300001,258006.591600017,NA,231961.394999991,NA,258731.783499999,257697.850500001,44714.6571000339,NA,NA,12681.1599000357,NA,NA,257705.1584,257170.627600048,NA,254213.380500034,NA,232054.856700008,13422.6291000377,63882.762800029,91678.7353000254,129762.063100003,171312.974500004,173677.740400017,232054.964500014,258731.856400031,NA,249593.809800048,253843.919200008,NA,NA,NA,256870.162300009,NA,NA,NA,NA,NA,NA,NA,231961.212299997,232047.834200028,NA,254213.31120003,NA,NA,257165.312300029,12681.3220000477,258006.675500015,12681.3725000247,257697.772700049,231960.328800022,NA,NA,13404.8489000415,NA,NA,179693.458200025,10,950894.040099985,12,1,0
84.6153846153846,96,73235.8565692288,"a","accuracy","ka2000mo","1","o","l","1","0","0",4,1,700,"Tue Mar 21 14:10:22 2023",1,"eher leicht","accuracy","Experiment.osexp","Bild_s3_o_9.png",1080,"mo",2000,"ka","blaue","C:/Users/steff/Documents/Universität/Master Psychologie/SS 2022/Masterarbeit/Experiment/subject-4.csv",0,0,0,"l",-5,-5,"l","l",1172.09529998945,1172.09529998945,4,249593.788300001,259940.859900031,NA,231961.394999991,NA,261113.524500048,259632.372200023,44714.6571000339,NA,NA,12681.1599000357,NA,NA,259639.691200049,259056.614300003,NA,259134.834300028,NA,232054.856700008,13422.6291000377,63882.762800029,91678.7353000254,129762.063100003,171312.974500004,173677.740400017,232054.964500014,261113.599400036,NA,249593.809800048,253843.919200008,NA,NA,NA,258755.687900004,NA,NA,NA,NA,NA,NA,NA,231961.212299997,232047.834200028,NA,259134.756700019,NA,NA,259051.239599998,12681.3220000477,259940.949200012,12681.3725000247,259632.293700008,231960.328800022,NA,NA,13404.8489000415,NA,NA,179693.458200025,11,952066.135399975,13,1,0
85.7142857142857,96,68062.3730714267,"a","accuracy","ka2000mo","1","b","a","1","0","0",5,1,700,"Tue Mar 21 14:10:22 2023",1,"eher leicht","accuracy","Experiment.osexp","Bild_s3_b_10.png",1080,"mo",2000,"ka","blaue","C:/Users/steff/Documents/Universität/Master Psychologie/SS 2022/Masterarbeit/Experiment/subject-4.csv",0,0,0,"l",0,0,"a","a",807.08759999834,807.08759999834,4,249593.788300001,262273.869100027,NA,231961.394999991,NA,263081.770299992,261966.132300033,44714.6571000339,NA,NA,12681.1599000357,NA,NA,261973.406900011,261434.120000049,NA,259134.834300028,NA,232054.856700008,13422.6291000377,63882.762800029,91678.7353000254,129762.063100003,171312.974500004,173677.740400017,232054.964500014,263081.844400032,NA,249593.809800048,253843.919200008,NA,NA,NA,261133.554,NA,NA,NA,NA,NA,NA,NA,231961.212299997,232047.834200028,NA,259134.756700019,NA,NA,261428.760600043,12681.3220000477,262273.951500014,12681.3725000247,261966.048400034,231960.328800022,NA,NA,13404.8489000415,NA,NA,179693.458200025,12,952873.222999973,14,1,0
86.6666666666667,96,63589.7917399998,"a","accuracy","ka2000mo","1","b","a","1","0","0",6,1,700,"Tue Mar 21 14:10:22 2023",0,"sehr leicht","accuracy","Experiment.osexp","Bild_s4_b_13.png",1080,"mo",2000,"ka","blaue","C:/Users/steff/Documents/Universität/Master Psychologie/SS 2022/Masterarbeit/Experiment/subject-4.csv",0,0,0,"l",5,5,"a","a",973.653100023512,973.653100023512,4,249593.788300001,264299.219600041,NA,231961.394999991,NA,265273.601400026,263990.617600037,44714.6571000339,NA,NA,12681.1599000357,NA,NA,263997.674700047,263408.089200035,NA,263482.830599998,NA,232054.856700008,13422.6291000377,63882.762800029,91678.7353000254,129762.063100003,171312.974500004,173677.740400017,232054.964500014,265273.673499993,NA,249593.809800048,253843.919200008,NA,NA,NA,263107.661599992,NA,NA,NA,NA,NA,NA,NA,231961.212299997,232047.834200028,NA,263482.768100046,NA,NA,263402.67640003,12681.3220000477,264299.377600022,12681.3725000247,263990.536700003,231960.328800022,NA,NA,13404.8489000415,NA,NA,179693.458200025,13,953846.876099997,15,1,0
87.5,96,59671.8927437505,"a","accuracy","ka2000mo","1","b","a","1","0","0",7,1,700,"Tue Mar 21 14:10:22 2023",0,"sehr leicht","accuracy","Experiment.osexp","Bild_s4_b_20.png",1080,"mo",2000,"ka","blaue","C:/Users/steff/Documents/Universität/Master Psychologie/SS 2022/Masterarbeit/Experiment/subject-4.csv",0,0,0,"l",10,10,"a","a",903.407800011337,903.407800011337,4,249593.788300001,266449.461800046,NA,231961.394999991,NA,267353.623200033,266141.164300032,44714.6571000339,NA,NA,12681.1599000357,NA,NA,266148.394900025,265602.999800001,NA,263482.830599998,NA,232054.856700008,13422.6291000377,63882.762800029,91678.7353000254,129762.063100003,171312.974500004,173677.740400017,232054.964500014,267353.697500017,NA,249593.809800048,253843.919200008,NA,NA,NA,265302.438300045,NA,NA,NA,NA,NA,NA,NA,231961.212299997,232047.834200028,NA,263482.768100046,NA,NA,265597.664000001,12681.3220000477,266449.628700037,12681.3725000247,266141.084600007,231960.328800022,NA,NA,13404.8489000415,NA,NA,179693.458200025,14,954750.283900008,16,1,0
88.2352941176471,96,56195.1100588228,"a","accuracy","ka2000mo","1","o","l","1","0","0",8,1,700,"Tue Mar 21 14:10:22 2023",0,"sehr leicht","accuracy","Experiment.osexp","Bild_s4_o_19.png",1080,"mo",2000,"ka","blaue","C:/Users/steff/Documents/Universität/Master Psychologie/SS 2022/Masterarbeit/Experiment/subject-4.csv",0,0,0,"l",15,15,"l","l",566.587099980097,566.587099980097,4,249593.788300001,268562.270599999,NA,231961.394999991,NA,269129.657000012,268254.568000033,44714.6571000339,NA,NA,12681.1599000357,NA,NA,268261.728600017,267683.784199995,NA,267755.629700026,NA,232054.856700008,13422.6291000377,63882.762800029,91678.7353000254,129762.063100003,171312.974500004,173677.740400017,232054.964500014,269129.733000009,NA,249593.809800048,253843.919200008,NA,NA,NA,267383.178299991,NA,NA,NA,NA,NA,NA,NA,231961.212299997,232047.834200028,NA,267755.559700017,NA,NA,267678.379699995,12681.3220000477,268562.444800045,12681.3725000247,268254.486999998,231960.328800022,NA,NA,13404.8489000415,NA,NA,179693.458200025,15,955316.870999988,17,1,0
88.8888888888889,96,53108.5237611098,"a","accuracy","ka2000mo","1","b","a","1","0","0",9,1,700,"Tue Mar 21 14:10:22 2023",0,"sehr leicht","accuracy","Experiment.osexp","Bild_s4_b_25.png",1080,"mo",2000,"ka","blaue","C:/Users/steff/Documents/Universität/Master Psychologie/SS 2022/Masterarbeit/Experiment/subject-4.csv",0,0,0,"l",20,20,"a","a",636.556699988432,636.556699988432,4,249593.788300001,270300.382300047,NA,231961.394999991,NA,270937.623900012,269991.6447,44714.6571000339,NA,NA,12681.1599000357,NA,NA,269998.974499991,269461.089000048,NA,267755.629700026,NA,232054.856700008,13422.6291000377,63882.762800029,91678.7353000254,129762.063100003,171312.974500004,173677.740400017,232054.964500014,270937.695300032,NA,249593.809800048,253843.919200008,NA,NA,NA,269160.500099999,NA,NA,NA,NA,NA,NA,NA,231961.212299997,232047.834200028,NA,267755.559700017,NA,NA,269455.749700021,12681.3220000477,270300.463000021,12681.3725000247,269991.562700015,231960.328800022,NA,NA,13404.8489000415,NA,NA,179693.458200025,16,955953.427699977,18,1,0
89.4736842105263,96,50353.6871947367,"a","accuracy","ka2000mo","1","b","a","1","0","0",10,1,700,"Tue Mar 21 14:10:22 2023",1,"eher leicht","accuracy","Experiment.osexp","Bild_s3_b_7.png",1080,"mo",2000,"ka","blaue","C:/Users/steff/Documents/Universität/Master Psychologie/SS 2022/Masterarbeit/Experiment/subject-4.csv",0,0,0,"l",25,25,"a","a",766.629000019748,766.629000019748,4,249593.788300001,272138.220200024,NA,231961.394999991,NA,272905.493800004,271830.581000017,44714.6571000339,NA,NA,12681.1599000357,NA,NA,271837.612300005,271258.210400003,NA,271331.610699999,NA,232054.856700008,13422.6291000377,63882.762800029,91678.7353000254,129762.063100003,171312.974500004,173677.740400017,232054.964500014,272905.575700046,NA,249593.809800048,253843.919200008,NA,NA,NA,270958.684900019,NA,NA,NA,NA,NA,NA,NA,231961.212299997,232047.834200028,NA,271331.540500047,NA,NA,271252.910500043,12681.3220000477,272138.396700029,12681.3725000247,271830.503400008,231960.328800022,NA,NA,13404.8489000415,NA,NA,179693.458200025,17,956720.056699996,19,1,0
90,96,47877.5163700018,"a","accuracy","ka2000mo","1","b","a","1","0","0",11,1,700,"Tue Mar 21 14:10:22 2023",1,"eher leicht","accuracy","Experiment.osexp","Bild_s3_b_8.png",1080,"mo",2000,"ka","blaue","C:/Users/steff/Documents/Universität/Master Psychologie/SS 2022/Masterarbeit/Experiment/subject-4.csv",0,0,0,"l",30,30,"a","a",830.270700040273,830.270700040273,4,249593.788300001,274074.556700012,NA,231961.394999991,NA,274905.614999996,273765.7855,44714.6571000339,NA,NA,12681.1599000357,NA,NA,273772.857300006,273234.649199992,NA,271331.610699999,NA,232054.856700008,13422.6291000377,63882.762800029,91678.7353000254,129762.063100003,171312.974500004,173677.740400017,232054.964500014,274905.686400016,NA,249593.809800048,253843.919200008,NA,NA,NA,272934.351200005,NA,NA,NA,NA,NA,NA,NA,231961.212299997,232047.834200028,NA,271331.540500047,NA,NA,273229.358800047,12681.3220000477,274074.745299993,12681.3725000247,273765.706900042,231960.328800022,NA,NA,13404.8489000415,NA,NA,179693.458200025,18,957550.327400037,20,1,0
90.4761904761905,96,45636.0920095245,"a","accuracy","ka2000mo","1","b","a","1","0","0",12,1,700,"Tue Mar 21 14:10:22 2023",2,"eher schwer","accuracy","Experiment.osexp","Bild_s2_b_3.png",1080,"mo",2000,"ka","blaue","C:/Users/steff/Documents/Universität/Master Psychologie/SS 2022/Masterarbeit/Experiment/subject-4.csv",0,0,0,"l",35,35,"a","a",807.604799978435,807.604799978435,4,249593.788300001,276113.222100015,NA,231961.394999991,NA,276921.776600007,275804.728600022,44714.6571000339,NA,NA,12681.1599000357,NA,NA,275812.067800027,275235.578800028,NA,275311.029500037,NA,232054.856700008,13422.6291000377,63882.762800029,91678.7353000254,129762.063100003,171312.974500004,173677.740400017,232054.964500014,276921.851399995,NA,249593.809800048,253843.919200008,NA,NA,NA,274935.023800004,NA,NA,NA,NA,NA,NA,NA,231961.212299997,232047.834200028,NA,275310.957500013,NA,NA,275230.295100017,12681.3220000477,276113.409200043,12681.3725000247,275804.651200015,231960.328800022,NA,NA,13404.8489000415,NA,NA,179693.458200025,19,958357.932200015,21,1,0
90.9090909090909,96,43605.4263636364,"a","accuracy","ka2000mo","1","o","l","1","0","0",13,1,700,"Tue Mar 21 14:10:22 2023",2,"eher schwer","accuracy","Experiment.osexp","Bild_s2_o_13.png",1080,"mo",2000,"ka","blaue","C:/Users/steff/Documents/Universität/Master Psychologie/SS 2022/Masterarbeit/Experiment/subject-4.csv",0,0,0,"l",40,40,"l","l",961.447799985763,961.447799985763,4,249593.788300001,278167.508800048,NA,231961.394999991,NA,279129.963400017,277859.055000008,44714.6571000339,NA,NA,12681.1599000357,NA,NA,277866.258200025,277239.870399993,NA,275311.029500037,NA,232054.856700008,13422.6291000377,63882.762800029,91678.7353000254,129762.063100003,171312.974500004,173677.740400017,232054.964500014,279130.047800019,NA,249593.809800048,253843.919200008,NA,NA,NA,276938.527900027,NA,NA,NA,NA,NA,NA,NA,231961.212299997,232047.834200028,NA,275310.957500013,NA,NA,277234.291200002,12681.3220000477,278167.596700019,12681.3725000247,277858.972000016,231960.328800022,NA,NA,13404.8489000415,NA,NA,179693.458200025,20,959319.380000001,22,1,0
91.304347826087,96,41743.7999217402,"a","accuracy","ka2000mo","1","o","l","1","0","0",14,1,700,"Tue Mar 21 14:10:22 2023",3,"sehr schwer","accuracy","Experiment.osexp","Bild_s1_o_20.png",1080,"mo",2000,"ka","blaue","C:/Users/steff/Documents/Universität/Master Psychologie/SS 2022/Masterarbeit/Experiment/subject-4.csv",0,0,0,"l",45,45,"l","l",788.018200022634,788.018200022634,4,249593.788300001,280420.89910002,NA,231961.394999991,NA,281209.629399993,280112.71820002,44714.6571000339,NA,NA,12681.1599000357,NA,NA,280119.990800042,279453.590899997,NA,279531.437500031,NA,232054.856700008,13422.6291000377,63882.762800029,91678.7353000254,129762.063100003,171312.974500004,173677.740400017,232054.964500014,281209.70300003,NA,249593.809800048,253843.919200008,NA,NA,NA,279151.921500044,NA,NA,NA,NA,NA,NA,NA,231961.212299997,232047.834200028,NA,279531.365300005,NA,NA,279447.670300025,12681.3220000477,280420.989900013,12681.3725000247,280112.628200033,231960.328800022,NA,NA,13404.8489000415,NA,NA,179693.458200025,21,960107.398200024,23,1,0
91.6666666666667,96,40034.6593166687,"a","accuracy","ka2000mo","1","o","l","1","0","0",15,1,700,"Tue Mar 21 14:10:22 2023",3,"sehr schwer","accuracy","Experiment.osexp","Bild_s1_o_5.png",1080,"mo",2000,"ka","blaue","C:/Users/steff/Documents/Universität/Master Psychologie/SS 2022/Masterarbeit/Experiment/subject-4.csv",0,0,0,"l",50,50,"l","l",724.425400025211,724.425400025211,4,249593.788300001,282391.036500048,NA,231961.394999991,NA,283116.263400007,282083.159000031,44714.6571000339,NA,NA,12681.1599000357,NA,NA,282090.447900002,281539.185300004,NA,279531.437500031,NA,232054.856700008,13422.6291000377,63882.762800029,91678.7353000254,129762.063100003,171312.974500004,173677.740400017,232054.964500014,283116.338599997,NA,249593.809800048,253843.919200008,NA,NA,NA,281238.494899997,NA,NA,NA,NA,NA,NA,NA,231961.212299997,232047.834200028,NA,279531.365300005,NA,NA,281533.845700033,12681.3220000477,282391.116000013,12681.3725000247,282083.011200011,231960.328800022,NA,NA,13404.8489000415,NA,NA,179693.458200025,22,960831.823600049,24,1,0
100,96,6826.75169999129,"a","speed","ka2000mo","1","b","a","0","1","0",16,2,700,"Tue Mar 21 14:10:22 2023",3,"sehr schwer","accuracy","Experiment.osexp","Bild_s1_b_15.png",1080,"mo",2000,"ka","blaue","C:/Users/steff/Documents/Universität/Master Psychologie/SS 2022/Masterarbeit/Experiment/subject-4.csv",0,0,0,"l",55,5,"a","a",625.998699979391,625.998699979391,4,301721.696600027,302550.897300011,NA,231961.394999991,288572.285700007,303177.834200033,302243.114800018,44714.6571000339,NA,NA,12681.1599000357,NA,283576.826000004,302250.326200039,283433.034799993,NA,301722.738500044,NA,288693.362799997,13422.6291000377,63882.762800029,91678.7353000254,129762.063100003,171312.974500004,173677.740400017,288693.503500021,303177.911300038,NA,301721.719100024,253843.919200008,NA,NA,NA,283132.532100019,NA,NA,NA,NA,NA,NA,NA,231961.212299997,288686.380800034,NA,301722.694900003,NA,NA,283427.689800039,12681.3220000477,302550.999700034,12681.3725000247,302242.878800025,231960.328800022,NA,NA,13404.8489000415,NA,NA,179693.458200025,2,13653.5033999826,2,1,50
100,96,4714.54793331213,"a","speed","ka2000mo","1","b","a","0","1","0",17,2,700,"Tue Mar 21 14:10:22 2023",3,"sehr schwer","accuracy","Experiment.osexp","Bild_s1_b_22.png",1080,"mo",2000,"ka","blaue","C:/Users/steff/Documents/Universität/Master Psychologie/SS 2022/Masterarbeit/Experiment/subject-4.csv",0,0,0,"l",60,10,"a","a",490.140399953816,490.140399953816,4,301721.696600027,304350.771600031,NA,231961.394999991,288572.285700007,304841.617500002,304042.962100008,44714.6571000339,NA,NA,12681.1599000357,NA,283576.826000004,304050.179700018,303502.531900012,NA,301722.738500044,NA,288693.362799997,13422.6291000377,63882.762800029,91678.7353000254,129762.063100003,171312.974500004,173677.740400017,288693.503500021,304841.696100018,NA,301721.719100024,253843.919200008,NA,NA,NA,283132.532100019,303201.787099999,NA,NA,NA,NA,NA,NA,231961.212299997,288686.380800034,NA,301722.694900003,NA,NA,303497.235900024,12681.3220000477,304350.857800047,12681.3725000247,304042.880800029,231960.328800022,NA,NA,13404.8489000415,NA,NA,179693.458200025,3,14143.6437999364,3,1,50
100,96,3676.6270249791,"a","speed","ka2000mo","1","o","l","0","1","0",18,2,700,"Tue Mar 21 14:10:22 2023",2,"eher schwer","accuracy","Experiment.osexp","Bild_s2_o_21.png",1080,"mo",2000,"ka","blaue","C:/Users/steff/Documents/Universität/Master Psychologie/SS 2022/Masterarbeit/Experiment/subject-4.csv",0,0,0,"l",65,15,"l","l",562.864299979992,562.864299979992,4,301721.696600027,306054.05060004,NA,231961.394999991,288572.285700007,306617.628200038,305745.739100035,44714.6571000339,NA,NA,12681.1599000357,NA,283576.826000004,305752.991200017,305170.270200004,NA,305250.33390004,NA,288693.362799997,13422.6291000377,63882.762800029,91678.7353000254,129762.063100003,171312.974500004,173677.740400017,288693.503500021,306617.703300028,NA,301721.719100024,253843.919200008,NA,NA,NA,283132.532100019,304869.53690002,NA,NA,NA,NA,NA,NA,231961.212299997,288686.380800034,NA,305250.260300003,NA,NA,305164.792500029,12681.3220000477,306054.131800018,12681.3725000247,305745.659700013,231960.328800022,NA,NA,13404.8489000415,NA,NA,179693.458200025,4,14706.5080999164,4,1,50
100,96,3088.61455997685,"a","speed","ka2000mo","1","o","l","0","0","1",19,2,700,"Tue Mar 21 14:10:22 2023",2,"eher schwer","accuracy","Experiment.osexp","Bild_s2_o_16.png",1080,"mo",2000,"ka","blaue","C:/Users/steff/Documents/Universität/Master Psychologie/SS 2022/Masterarbeit/Experiment/subject-4.csv",0,0,0,"l",55,5,"l","l",736.564699967857,736.564699967857,4,301721.696600027,307784.332800016,NA,231961.394999991,288572.285700007,308521.46660001,307476.491700043,44714.6571000339,NA,NA,12681.1599000357,NA,283576.826000004,307483.359700011,306937.855100026,NA,305250.33390004,NA,288693.362799997,13422.6291000377,63882.762800029,91678.7353000254,129762.063100003,171312.974500004,173677.740400017,288693.503500021,308521.569500037,NA,301721.719100024,253843.919200008,NA,NA,NA,283132.532100019,306636.333000031,NA,NA,NA,NA,NA,NA,231961.212299997,288686.380800034,NA,305250.260300003,NA,NA,306932.473500026,12681.3220000477,307784.428600047,12681.3725000247,307476.41090001,231960.328800022,NA,NA,13404.8489000415,NA,NA,179693.458200025,5,15443.0727998842,5,1,50
100,96,2648.34231665009,"a","speed","ka2000mo","1","b","a","0","1","0",20,2,700,"Tue Mar 21 14:10:22 2023",1,"eher leicht","accuracy","Experiment.osexp","Bild_s3_b_9.png",1080,"mo",2000,"ka","blaue","C:/Users/steff/Documents/Universität/Master Psychologie/SS 2022/Masterarbeit/Experiment/subject-4.csv",0,0,0,"l",60,10,"a","a",446.981100016274,446.981100016274,4,301721.696600027,309737.947200018,NA,231961.394999991,288572.285700007,310185.863399995,309430.2149,44714.6571000339,NA,NA,12681.1599000357,NA,283576.826000004,309437.156900007,308850.957599992,NA,308928.496400011,NA,288693.362799997,13422.6291000377,63882.762800029,91678.7353000254,129762.063100003,171312.974500004,173677.740400017,288693.503500021,310185.941600008,NA,301721.719100024,253843.919200008,308550.55460002,NA,NA,283132.532100019,306636.333000031,NA,NA,NA,NA,NA,NA,231961.212299997,288686.380800034,NA,308928.426900005,NA,NA,308845.690799993,12681.3220000477,309738.031500019,12681.3725000247,309430.107099994,231960.328800022,NA,NA,13404.8489000415,NA,NA,179693.458200025,6,15890.0538999005,6,1,50
85.7142857142857,96,2323.55704284107,"a","speed","ka2000mo","0","b","a","0","0","0",21,2,700,"Tue Mar 21 14:10:22 2023",1,"eher leicht","accuracy","Experiment.osexp","Bild_s3_b_1.png",1080,"mo",2000,"ka","blaue","C:/Users/steff/Documents/Universität/Master Psychologie/SS 2022/Masterarbeit/Experiment/subject-4.csv",0,1,0,"l",50,0,"l","l",374.845399986953,374.845399986953,4,301721.696600027,311378.072499996,NA,231961.394999991,288572.285700007,311753.870100016,311070.384700026,44714.6571000339,NA,NA,12681.1599000357,NA,283576.826000004,311077.576300013,310534.420600045,NA,308928.496400011,NA,288693.362799997,13422.6291000377,63882.762800029,91678.7353000254,129762.063100003,171312.974500004,173677.740400017,288693.503500021,311753.965700045,NA,301721.719100024,253843.919200008,308550.55460002,NA,NA,283132.532100019,310233.433699992,NA,NA,NA,NA,NA,NA,231961.212299997,288686.380800034,NA,308928.426900005,NA,NA,310528.909000044,12681.3220000477,311378.157700005,12681.3725000247,311070.304499997,231960.328800022,NA,NA,13404.8489000415,NA,NA,179693.458200025,6,16264.8992998875,7,1,50
87.5,96,2090.33179998369,"a","speed","ka2000mo","1","o","l","0","1","0",22,2,700,"Tue Mar 21 14:10:22 2023",0,"sehr leicht","accuracy","Experiment.osexp","Bild_s4_o_13.png",1080,"mo",2000,"ka","blaue","C:/Users/steff/Documents/Universität/Master Psychologie/SS 2022/Masterarbeit/Experiment/subject-4.csv",0,0,0,"l",55,5,"l","l",457.755099982023,457.755099982023,4,301721.696600027,312959.153700038,NA,231961.394999991,288572.285700007,313417.625600006,312651.398900023,44714.6571000339,NA,NA,12681.1599000357,NA,283576.826000004,312658.292600012,312069.496900018,NA,312141.563500045,NA,288693.362799997,13422.6291000377,63882.762800029,91678.7353000254,129762.063100003,171312.974500004,173677.740400017,288693.503500021,313417.701600003,NA,301721.719100024,253843.919200008,308550.55460002,NA,311768.803000043,283132.532100019,310233.433699992,NA,NA,NA,NA,NA,NA,231961.212299997,288686.380800034,NA,312141.4965,NA,NA,312064.1206,12681.3220000477,312959.236900031,12681.3725000247,312651.315900031,231960.328800022,NA,NA,13404.8489000415,NA,NA,179693.458200025,7,16722.6543998695,8,1,50
77.7777777777778,96,1899.56678887312,"a","speed","ka2000mo","0","o","l","0","0","0",23,2,700,"Tue Mar 21 14:10:22 2023",0,"sehr leicht","accuracy","Experiment.osexp","Bild_s4_o_4.png",1080,"mo",2000,"ka","blaue","C:/Users/steff/Documents/Universität/Master Psychologie/SS 2022/Masterarbeit/Experiment/subject-4.csv",0,1,0,"l",45,-5,"a","a",373.446699988563,373.446699988563,4,301721.696600027,314579.456200008,NA,231961.394999991,288572.285700007,314953.555500018,314271.713600028,44714.6571000339,NA,NA,12681.1599000357,NA,283576.826000004,314278.809900046,313737.966100045,NA,312141.563500045,NA,288693.362799997,13422.6291000377,63882.762800029,91678.7353000254,129762.063100003,171312.974500004,173677.740400017,288693.503500021,314953.651599993,NA,301721.719100024,253843.919200008,308550.55460002,NA,311768.803000043,283132.532100019,313437.376599992,NA,NA,NA,NA,NA,NA,231961.212299997,288686.380800034,NA,312141.4965,NA,NA,313732.455999998,12681.3220000477,314579.542700027,12681.3725000247,314271.636600024,231960.328800022,NA,NA,13404.8489000415,NA,NA,179693.458200025,7,17096.1010998581,9,1,50
80,96,1751.90080998582,"a","speed","ka2000mo","1","o","l","0","1","0",24,2,700,"Tue Mar 21 14:10:22 2023",0,"sehr leicht","accuracy","Experiment.osexp","Bild_s4_o_14.png",1080,"mo",2000,"ka","blaue","C:/Users/steff/Documents/Universität/Master Psychologie/SS 2022/Masterarbeit/Experiment/subject-4.csv",0,0,0,"l",50,0,"l","l",422.907000000123,422.907000000123,4,301721.696600027,316161.996600043,NA,231961.394999991,288572.285700007,316585.598600039,315854.113600042,44714.6571000339,NA,NA,12681.1599000357,NA,283576.826000004,315861.312600027,315281.6705,NA,315356.114900031,NA,288693.362799997,13422.6291000377,63882.762800029,91678.7353000254,129762.063100003,171312.974500004,173677.740400017,288693.503500021,316585.675600043,NA,301721.719100024,253843.919200008,308550.55460002,NA,314981.155300047,283132.532100019,313437.376599992,NA,NA,NA,NA,NA,NA,231961.212299997,288686.380800034,NA,315356.047900044,NA,NA,315276.299900026,12681.3220000477,316162.07760002,12681.3725000247,315854.034500022,231960.328800022,NA,NA,13404.8489000415,NA,NA,179693.458200025,8,17519.0080998582,10,1,50
81.8181818181818,96,1625.72298180418,"a","speed","ka2000mo","1","b","a","0","1","0",25,2,700,"Tue Mar 21 14:10:22 2023",0,"sehr leicht","accuracy","Experiment.osexp","Bild_s4_b_6.png",1080,"mo",2000,"ka","blaue","C:/Users/steff/Documents/Universität/Master Psychologie/SS 2022/Masterarbeit/Experiment/subject-4.csv",0,0,0,"l",55,5,"a","a",363.944699987769,363.944699987769,4,301721.696600027,317756.908800045,NA,231961.394999991,288572.285700007,318121.613299998,317448.834000039,44714.6571000339,NA,NA,12681.1599000357,NA,283576.826000004,317455.729100038,316907.256900042,NA,315356.114900031,NA,288693.362799997,13422.6291000377,63882.762800029,91678.7353000254,129762.063100003,171312.974500004,173677.740400017,288693.503500021,318121.693100024,NA,301721.719100024,253843.919200008,308550.55460002,NA,314981.155300047,283132.532100019,316606.474400032,NA,NA,NA,NA,NA,NA,231961.212299997,288686.380800034,NA,315356.047900044,NA,NA,316901.965800032,12681.3220000477,317756.998200028,12681.3725000247,317448.755300022,231960.328800022,NA,NA,13404.8489000415,NA,NA,179693.458200025,9,17882.952799846,11,1,50
75,96,1516.42945832282,"a","speed","ka2000mo","0","o","l","0","0","0",26,2,700,"Tue Mar 21 14:10:22 2023",1,"eher leicht","accuracy","Experiment.osexp","Bild_s3_o_11.png",1080,"mo",2000,"ka","blaue","C:/Users/steff/Documents/Universität/Master Psychologie/SS 2022/Masterarbeit/Experiment/subject-4.csv",0,1,0,"l",45,-5,"a","a",314.200700027868,314.200700027868,4,301721.696600027,319342.699800036,NA,231961.394999991,288572.285700007,319657.665800012,319035.047600046,44714.6571000339,NA,NA,12681.1599000357,NA,283576.826000004,319041.840500024,318450.708799995,NA,318532.12670004,NA,288693.362799997,13422.6291000377,63882.762800029,91678.7353000254,129762.063100003,171312.974500004,173677.740400017,288693.503500021,319657.761600043,NA,301721.719100024,253843.919200008,308550.55460002,NA,314981.155300047,283132.532100019,318150.341,NA,NA,NA,NA,NA,NA,231961.212299997,288686.380800034,NA,318532.054300013,NA,NA,318445.397400006,12681.3220000477,319342.785999994,12681.3725000247,319034.96780002,231960.328800022,NA,NA,13404.8489000415,NA,NA,179693.458200025,9,18197.1534998738,12,1,50
76.9230769230769,96,1442.17744614266,"a","speed","ka2000mo","1","b","a","0","1","0",27,2,700,"Tue Mar 21 14:10:22 2023",1,"eher leicht","accuracy","Experiment.osexp","Bild_s3_b_10.png",1080,"mo",2000,"ka","blaue","C:/Users/steff/Documents/Universität/Master Psychologie/SS 2022/Masterarbeit/Experiment/subject-4.csv",0,0,0,"l",50,0,"a","a",551.153299980797,551.153299980797,4,301721.696600027,320833.64050003,NA,231961.394999991,288572.285700007,321385.541399999,320525.669499999,44714.6571000339,NA,NA,12681.1599000357,NA,283576.826000004,320532.568500028,319986.198600032,NA,318532.12670004,NA,288693.362799997,13422.6291000377,63882.762800029,91678.7353000254,129762.063100003,171312.974500004,173677.740400017,288693.503500021,321385.618100001,NA,301721.719100024,253843.919200008,308550.55460002,NA,319685.090000043,283132.532100019,318150.341,NA,NA,NA,NA,NA,NA,231961.212299997,288686.380800034,NA,318532.054300013,NA,NA,319980.883800017,12681.3220000477,320833.808800031,12681.3725000247,320525.589200028,231960.328800022,NA,NA,13404.8489000415,NA,NA,179693.458200025,10,18748.3067998546,13,1,50
71.4285714285714,96,1380.75270713307,"a","speed","ka2000mo","0","b","a","0","0","0",28,2,700,"Tue Mar 21 14:10:22 2023",2,"eher schwer","accuracy","Experiment.osexp","Bild_s2_b_17.png",1080,"mo",2000,"ka","blaue","C:/Users/steff/Documents/Universität/Master Psychologie/SS 2022/Masterarbeit/Experiment/subject-4.csv",0,1,0,"l",40,-10,"l","l",582.231100008357,582.231100008357,4,301721.696600027,322578.678600024,NA,231961.394999991,288572.285700007,323161.691200046,322270.993800019,44714.6571000339,NA,NA,12681.1599000357,NA,283576.826000004,322278.181100031,321701.992000046,NA,321772.682100011,NA,288693.362799997,13422.6291000377,63882.762800029,91678.7353000254,129762.063100003,171312.974500004,173677.740400017,288693.503500021,323161.786000011,NA,301721.719100024,253843.919200008,308550.55460002,NA,319685.090000043,283132.532100019,321401.498500025,NA,NA,NA,NA,NA,NA,231961.212299997,288686.380800034,NA,321772.609300038,NA,NA,321696.763700049,12681.3220000477,322578.756500036,12681.3725000247,322270.859100041,231960.328800022,NA,NA,13404.8489000415,NA,NA,179693.458200025,10,19330.537899863,14,1,50
73.3333333333333,96,1322.07176665931,"a","speed","ka2000mo","1","b","a","0","1","0",29,2,700,"Tue Mar 21 14:10:22 2023",2,"eher schwer","accuracy","Experiment.osexp","Bild_s2_b_20.png",1080,"mo",2000,"ka","blaue","C:/Users/steff/Documents/Universität/Master Psychologie/SS 2022/Masterarbeit/Experiment/subject-4.csv",0,0,0,"l",45,-5,"a","a",500.53860002663,500.53860002663,4,301721.696600027,324340.314100031,NA,231961.394999991,288572.285700007,324841.550400015,324032.279700041,44714.6571000339,NA,NA,12681.1599000357,NA,283576.826000004,324039.336699992,323489.757300005,NA,321772.682100011,NA,288693.362799997,13422.6291000377,63882.762800029,91678.7353000254,129762.063100003,171312.974500004,173677.740400017,288693.503500021,324841.629400034,NA,301721.719100024,253843.919200008,308550.55460002,NA,323189.062200021,283132.532100019,321401.498500025,NA,NA,NA,NA,NA,NA,231961.212299997,288686.380800034,NA,321772.609300038,NA,NA,323484.457200044,12681.3220000477,324340.495800017,12681.3725000247,324032.20180003,231960.328800022,NA,NA,13404.8489000415,NA,NA,179693.458200025,11,19831.0764998896,15,1,50
68.75,96,1281.43228749468,"a","speed","ka2000mo","0","b","a","0","0","0",30,2,700,"Tue Mar 21 14:10:22 2023",3,"sehr schwer","accuracy","Experiment.osexp","Bild_s1_b_13.png",1080,"mo",2000,"ka","blaue","C:/Users/steff/Documents/Universität/Master Psychologie/SS 2022/Masterarbeit/Experiment/subject-4.csv",0,1,0,"l",35,-15,"l","l",671.840100025292,671.840100025292,4,301721.696600027,326056.908600032,NA,231961.394999991,288572.285700007,326729.479200032,325743.455200049,44714.6571000339,NA,NA,12681.1599000357,NA,283576.826000004,325750.62810001,325161.552900041,NA,325239.469600026,NA,288693.362799997,13422.6291000377,63882.762800029,91678.7353000254,129762.063100003,171312.974500004,173677.740400017,288693.503500021,326729.587100039,NA,301721.719100024,253843.919200008,308550.55460002,NA,323189.062200021,283132.532100019,324861.334900022,NA,NA,NA,NA,NA,NA,231961.212299997,288686.380800034,NA,325239.396599995,NA,NA,325156.234900001,12681.3220000477,326057.1108,12681.3725000247,325743.378200044,231960.328800022,NA,NA,13404.8489000415,NA,NA,179693.458200025,11,20502.9165999149,16,1,50
64.7058823529412,96,1247.11426470073,"a","speed","ka2000mo","0","b","a","0","0","0",31,2,700,"Tue Mar 21 14:10:22 2023",3,"sehr schwer","accuracy","Experiment.osexp","Bild_s1_b_18.png",1080,"mo",2000,"ka","blaue","C:/Users/steff/Documents/Universität/Master Psychologie/SS 2022/Masterarbeit/Experiment/subject-4.csv",0,1,0,"l",25,-25,"l","l",698.025899997447,698.025899997447,4,301721.696600027,327902.880700014,NA,231961.394999991,288572.285700007,328601.696500031,327595.067600021,44714.6571000339,NA,NA,12681.1599000357,NA,283576.826000004,327602.378600044,327047.709800012,NA,325239.469600026,NA,288693.362799997,13422.6291000377,63882.762800029,91678.7353000254,129762.063100003,171312.974500004,173677.740400017,288693.503500021,328601.804200036,NA,301721.719100024,253843.919200008,308550.55460002,NA,326747.084100032,283132.532100019,324861.334900022,NA,NA,NA,NA,NA,NA,231961.212299997,288686.380800034,NA,325239.396599995,NA,NA,327042.337800027,12681.3220000477,327902.959600033,12681.3725000247,327594.988299999,231960.328800022,NA,NA,13404.8489000415,NA,NA,179693.458200025,11,21200.9424999123,17,1,50
100,96,28441.1590666665,"a","accuracy","ka2000mo","1","o","l","1","0","0",32,3,700,"Tue Mar 21 14:10:22 2023",1,"eher leicht","accuracy","Experiment.osexp","Bild_s3_o_5.png",1080,"mo",2000,"ka","blaue","C:/Users/steff/Documents/Universität/Master Psychologie/SS 2022/Masterarbeit/Experiment/subject-4.csv",0,0,0,"l",5,5,"l","l",612.582899979316,612.582899979316,4,301721.696600027,374420.231099997,370242.493700003,231961.394999991,334075.413500017,375033.647100034,374111.092500039,44714.6571000339,NA,334148.032199999,12681.1599000357,NA,329076.861900045,374118.700099993,328920.956100046,373578.475699993,325239.469600026,370350.520200038,288693.362799997,13422.6291000377,63882.762800029,91678.7353000254,129762.063100003,171312.974500004,173677.740400017,370350.630900008,375033.718899998,373577.606300008,301721.719100024,253843.919200008,308550.55460002,NA,328620.082400041,283132.532100019,324861.334900022,NA,NA,NA,NA,NA,370343.35510002,231961.212299997,288686.380800034,373578.431400005,325239.396599995,370242.430500046,370187.046100036,328915.572700032,12681.3220000477,374420.402500022,12681.3725000247,374110.891400022,231960.328800022,334143.724300025,334108.965900028,13404.8489000415,NA,NA,179693.458200025,3,85323.4771999996,3,0,25
100,96,21433.7423999968,"a","accuracy","ka2000mo","1","b","a","1","0","0",33,3,700,"Tue Mar 21 14:10:22 2023",1,"eher leicht","accuracy","Experiment.osexp","Bild_s3_b_3.png",1080,"mo",2000,"ka","blaue","C:/Users/steff/Documents/Universität/Master Psychologie/SS 2022/Masterarbeit/Experiment/subject-4.csv",0,0,0,"l",10,10,"a","a",411.492399987765,411.492399987765,4,301721.696600027,376205.376700033,370242.493700003,231961.394999991,334075.413500017,376617.734700034,375897.309400025,44714.6571000339,NA,334148.032199999,12681.1599000357,NA,329076.861900045,375904.219700024,375351.219100005,373578.475699993,325239.469600026,370350.520200038,288693.362799997,13422.6291000377,63882.762800029,91678.7353000254,129762.063100003,171312.974500004,173677.740400017,370350.630900008,376617.804500042,373577.606300008,301721.719100024,253843.919200008,308550.55460002,NA,328620.082400041,375049.956200004,324861.334900022,NA,NA,NA,NA,NA,370343.35510002,231961.212299997,288686.380800034,373578.431400005,325239.396599995,370242.430500046,370187.046100036,375345.872000034,12681.3220000477,376205.460000027,12681.3725000247,375897.231200011,231960.328800022,334143.724300025,334108.965900028,13404.8489000415,NA,NA,179693.458200025,4,85734.9695999874,4,0,25
100,96,17237.6047399943,"a","accuracy","ka2000mo","1","o","l","1","0","0",34,3,700,"Tue Mar 21 14:10:22 2023",1,"eher leicht","accuracy","Experiment.osexp","Bild_s3_o_17.png",1080,"mo",2000,"ka","blaue","C:/Users/steff/Documents/Universität/Master Psychologie/SS 2022/Masterarbeit/Experiment/subject-4.csv",0,0,0,"l",15,15,"l","l",453.054099984001,453.054099984001,4,301721.696600027,377779.794300033,370242.493700003,231961.394999991,334075.413500017,378233.586400049,377471.883599996,44714.6571000339,NA,334148.032199999,12681.1599000357,NA,329076.861900045,377479.159400042,376930.582800007,373578.475699993,325239.469600026,370350.520200038,288693.362799997,13422.6291000377,63882.762800029,91678.7353000254,129762.063100003,171312.974500004,173677.740400017,370350.630900008,378233.656199998,373577.606300008,301721.719100024,253843.919200008,308550.55460002,NA,328620.082400041,376629.736200033,324861.334900022,NA,NA,NA,NA,NA,370343.35510002,231961.212299997,288686.380800034,373578.431400005,325239.396599995,370242.430500046,370187.046100036,376925.233900023,12681.3220000477,377779.883700015,12681.3725000247,377471.806000045,231960.328800022,334143.724300025,334108.965900028,13404.8489000415,NA,NA,179693.458200025,5,86188.0236999714,5,0,25
100,96,14448.8419666692,"a","accuracy","ka2000mo","1","o","l","1","0","0",35,3,700,"Tue Mar 21 14:10:22 2023",1,"eher leicht","accuracy","Experiment.osexp","Bild_s3_o_10.png",1080,"mo",2000,"ka","blaue","C:/Users/steff/Documents/Universität/Master Psychologie/SS 2022/Masterarbeit/Experiment/subject-4.csv",0,0,0,"l",20,20,"l","l",505.028100044001,505.028100044001,4,301721.696600027,379407.815700048,370242.493700003,231961.394999991,334075.413500017,379913.648300047,379099.210800021,44714.6571000339,NA,334148.032199999,12681.1599000357,NA,329076.861900045,379106.561399996,378563.588400022,373578.475699993,325239.469600026,370350.520200038,288693.362799997,13422.6291000377,63882.762800029,91678.7353000254,129762.063100003,171312.974500004,173677.740400017,370350.630900008,379913.719100005,373577.606300008,301721.719100024,253843.919200008,308550.55460002,NA,328620.082400041,378263.038000034,324861.334900022,NA,NA,NA,NA,NA,370343.35510002,231961.212299997,288686.380800034,373578.431400005,325239.396599995,370242.430500046,370187.046100036,378558.305700019,12681.3220000477,379407.901700004,12681.3725000247,379099.132400006,231960.328800022,334143.724300025,334108.965900028,13404.8489000415,NA,NA,179693.458200025,6,86693.0518000154,6,0,25
100,96,12457.5963857185,"a","accuracy","ka2000mo","1","o","l","1","0","0",36,3,700,"Tue Mar 21 14:10:22 2023",1,"eher leicht","accuracy","Experiment.osexp","Bild_s3_o_14.png",1080,"mo",2000,"ka","blaue","C:/Users/steff/Documents/Universität/Master Psychologie/SS 2022/Masterarbeit/Experiment/subject-4.csv",0,0,0,"l",25,25,"l","l",510.122900013812,510.122900013812,4,301721.696600027,381082.711499999,370242.493700003,231961.394999991,334075.413500017,381593.561400019,380774.91680003,44714.6571000339,NA,334148.032199999,12681.1599000357,NA,329076.861900045,380782.263700035,380239.797900023,373578.475699993,325239.469600026,370350.520200038,288693.362799997,13422.6291000377,63882.762800029,91678.7353000254,129762.063100003,171312.974500004,173677.740400017,370350.630900008,381593.635800004,373577.606300008,301721.719100024,253843.919200008,308550.55460002,NA,328620.082400041,379938.974999997,324861.334900022,NA,NA,NA,NA,NA,370343.35510002,231961.212299997,288686.380800034,373578.431400005,325239.396599995,370242.430500046,370187.046100036,380234.494600038,12681.3220000477,381082.796400005,12681.3725000247,380774.780900043,231960.328800022,334143.724300025,334108.965900028,13404.8489000415,NA,NA,179693.458200025,7,87203.1747000292,7,0,25
100,96,10965.771975003,"a","accuracy","ka2000mo","1","o","l","1","0","0",37,3,700,"Tue Mar 21 14:10:22 2023",1,"eher leicht","accuracy","Experiment.osexp","Bild_s3_o_13.png",1080,"mo",2000,"ka","blaue","C:/Users/steff/Documents/Universität/Master Psychologie/SS 2022/Masterarbeit/Experiment/subject-4.csv",0,0,0,"l",30,30,"l","l",523.001099994872,523.001099994872,4,301721.696600027,382765.877600003,370242.493700003,231961.394999991,334075.413500017,383289.673499996,382457.949800009,44714.6571000339,NA,334148.032199999,12681.1599000357,NA,329076.861900045,382465.313200024,381913.885999995,373578.475699993,325239.469600026,370350.520200038,288693.362799997,13422.6291000377,63882.762800029,91678.7353000254,129762.063100003,171312.974500004,173677.740400017,370350.630900008,383289.747200033,373577.606300008,301721.719100024,253843.919200008,308550.55460002,NA,328620.082400041,381612.899600004,324861.334900022,NA,NA,NA,NA,NA,370343.35510002,231961.212299997,288686.380800034,373578.431400005,325239.396599995,370242.430500046,370187.046100036,381908.519299992,12681.3220000477,382765.957300027,12681.3725000247,382457.865400007,231960.328800022,334143.724300025,334108.965900028,13404.8489000415,NA,NA,179693.458200025,8,87726.1758000241,8,0,25
88.8888888888889,96,9805.43134444936,"a","accuracy","ka2000mo","0","o","l","0","0","0",38,3,700,"Tue Mar 21 14:10:22 2023",1,"eher leicht","accuracy","Experiment.osexp","Bild_s3_o_11.png",1080,"mo",2000,"ka","blaue","C:/Users/steff/Documents/Universität/Master Psychologie/SS 2022/Masterarbeit/Experiment/subject-4.csv",1,0,0,"l",20,20,"a","a",522.706300020218,522.706300020218,4,301721.696600027,384478.127100039,370242.493700003,231961.394999991,334075.413500017,385001.71630003,384170.146699995,44714.6571000339,NA,334148.032199999,12681.1599000357,NA,329076.861900045,384177.05540004,383622.208999994,373578.475699993,325239.469600026,370350.520200038,288693.362799997,13422.6291000377,63882.762800029,91678.7353000254,129762.063100003,171312.974500004,173677.740400017,370350.630900008,385001.787699992,373577.606300008,301721.719100024,253843.919200008,308550.55460002,NA,328620.082400041,383321.37010002,324861.334900022,NA,NA,NA,NA,NA,370343.35510002,231961.212299997,288686.380800034,373578.431400005,325239.396599995,370242.430500046,370187.046100036,383616.881099995,12681.3220000477,384478.213299997,12681.3725000247,384170.066400024,231960.328800022,334143.724300025,334108.965900028,13404.8489000415,NA,NA,179693.458200025,8,88248.8821000443,9,0,25
90,96,8875.25559000787,"a","accuracy","ka2000mo","1","b","a","1","0","0",39,3,700,"Tue Mar 21 14:10:22 2023",1,"eher leicht","accuracy","Experiment.osexp","Bild_s3_b_10.png",1080,"mo",2000,"ka","blaue","C:/Users/steff/Documents/Universität/Master Psychologie/SS 2022/Masterarbeit/Experiment/subject-4.csv",0,0,0,"l",25,25,"a","a",503.673800034449,503.673800034449,4,301721.696600027,386193.170200044,370242.493700003,231961.394999991,334075.413500017,386697.610800038,385885.204099992,44714.6571000339,NA,334148.032199999,12681.1599000357,NA,329076.861900045,385892.051000032,385327.053400048,373578.475699993,325239.469600026,370350.520200038,288693.362799997,13422.6291000377,63882.762800029,91678.7353000254,129762.063100003,171312.974500004,173677.740400017,370350.630900008,386697.680000041,373577.606300008,301721.719100024,385026.232600037,308550.55460002,NA,328620.082400041,383321.37010002,324861.334900022,NA,NA,NA,NA,NA,370343.35510002,231961.212299997,288686.380800034,373578.431400005,325239.396599995,370242.430500046,370187.046100036,385321.727000002,12681.3220000477,386193.255399994,12681.3725000247,385885.126100038,231960.328800022,334143.724300025,334108.965900028,13404.8489000415,NA,NA,179693.458200025,9,88752.5559000787,10,0,25
90.9090909090909,96,8127.10730909814,"a","accuracy","ka2000mo","1","o","l","1","0","0",40,3,700,"Tue Mar 21 14:10:22 2023",2,"eher schwer","accuracy","Experiment.osexp","Bild_s2_o_25.png",1080,"mo",2000,"ka","blaue","C:/Users/steff/Documents/Universität/Master Psychologie/SS 2022/Masterarbeit/Experiment/subject-4.csv",0,0,0,"l",30,30,"l","l",645.624500000849,645.624500000849,4,301721.696600027,387907.219000044,370242.493700003,231961.394999991,334075.413500017,388553.449400002,387599.280600029,44714.6571000339,NA,334148.032199999,12681.1599000357,NA,329076.861900045,387606.626500026,387017.707400024,387095.335600025,325239.469600026,370350.520200038,288693.362799997,13422.6291000377,63882.762800029,91678.7353000254,129762.063100003,171312.974500004,173677.740400017,370350.630900008,388553.523400042,373577.606300008,301721.719100024,385026.232600037,308550.55460002,NA,328620.082400041,386717.156900035,324861.334900022,NA,NA,NA,NA,NA,370343.35510002,231961.212299997,288686.380800034,387095.265500015,325239.396599995,370242.430500046,370187.046100036,387012.445400003,12681.3220000477,387907.301300031,12681.3725000247,387599.198100041,231960.328800022,334143.724300025,334108.965900028,13404.8489000415,NA,NA,179693.458200025,10,89398.1804000796,11,0,25
91.6666666666667,96,7505.65882500571,"a","accuracy","ka2000mo","1","o","l","1","0","0",41,3,700,"Tue Mar 21 14:10:22 2023",2,"eher schwer","accuracy","Experiment.osexp","Bild_s2_o_11.png",1080,"mo",2000,"ka","blaue","C:/Users/steff/Documents/Universität/Master Psychologie/SS 2022/Masterarbeit/Experiment/subject-4.csv",0,0,0,"l",35,35,"l","l",669.725499988999,669.725499988999,4,301721.696600027,389723.11890003,370242.493700003,231961.394999991,334075.413500017,390393.512700044,389415.088800015,44714.6571000339,NA,334148.032199999,12681.1599000357,NA,329076.861900045,389422.347400046,388873.981500044,387095.335600025,325239.469600026,370350.520200038,288693.362799997,13422.6291000377,63882.762800029,91678.7353000254,129762.063100003,171312.974500004,173677.740400017,370350.630900008,390393.5834,373577.606300008,301721.719100024,385026.232600037,308550.55460002,NA,328620.082400041,388573.531600006,324861.334900022,NA,NA,NA,NA,NA,370343.35510002,231961.212299997,288686.380800034,387095.265500015,325239.396599995,370242.430500046,370187.046100036,388868.691900047,12681.3220000477,389723.201800021,12681.3725000247,389415.008600045,231960.328800022,334143.724300025,334108.965900028,13404.8489000415,NA,NA,179693.458200025,11,90067.9059000686,12,0,25
92.3076923076923,96,6977.79486923873,"a","accuracy","ka2000mo","1","o","l","1","0","0",42,3,700,"Tue Mar 21 14:10:22 2023",2,"eher schwer","accuracy","Experiment.osexp","Bild_s2_o_9.png",1080,"mo",2000,"ka","blaue","C:/Users/steff/Documents/Universität/Master Psychologie/SS 2022/Masterarbeit/Experiment/subject-4.csv",0,0,0,"l",40,40,"l","l",643.427400034852,643.427400034852,4,301721.696600027,391573.399000045,370242.493700003,231961.394999991,334075.413500017,392217.500600033,391265.365700005,44714.6571000339,NA,334148.032199999,12681.1599000357,NA,329076.861900045,391272.279000026,390725.319200021,387095.335600025,325239.469600026,370350.520200038,288693.362799997,13422.6291000377,63882.762800029,91678.7353000254,129762.063100003,171312.974500004,173677.740400017,370350.630900008,392217.571300047,373577.606300008,301721.719100024,385026.232600037,308550.55460002,NA,328620.082400041,390425.531000015,324861.334900022,NA,NA,NA,NA,NA,370343.35510002,231961.212299997,288686.380800034,387095.265500015,325239.396599995,370242.430500046,370187.046100036,390720.035000006,12681.3220000477,391573.483899992,12681.3725000247,391265.281600005,231960.328800022,334143.724300025,334108.965900028,13404.8489000415,NA,NA,179693.458200025,12,90711.3333001034,13,0,25
92.8571428571429,96,6527.36550000762,"a","accuracy","ka2000mo","1","o","l","1","0","0",43,3,700,"Tue Mar 21 14:10:22 2023",2,"eher schwer","accuracy","Experiment.osexp","Bild_s2_o_3.png",1080,"mo",2000,"ka","blaue","C:/Users/steff/Documents/Universität/Master Psychologie/SS 2022/Masterarbeit/Experiment/subject-4.csv",0,0,0,"l",45,45,"l","l",671.783700003289,671.783700003289,4,301721.696600027,393400.847200013,370242.493700003,231961.394999991,334075.413500017,394073.656900029,393091.868499992,44714.6571000339,NA,334148.032199999,12681.1599000357,NA,329076.861900045,393098.690600018,392542.49610001,387095.335600025,325239.469600026,370350.520200038,288693.362799997,13422.6291000377,63882.762800029,91678.7353000254,129762.063100003,171312.974500004,173677.740400017,370350.630900008,394073.731900018,373577.606300008,301721.719100024,385026.232600037,308550.55460002,NA,328620.082400041,392241.822600015,324861.334900022,NA,NA,NA,NA,NA,370343.35510002,231961.212299997,288686.380800034,387095.265500015,325239.396599995,370242.430500046,370187.046100036,392537.0903,12681.3220000477,393401.101900032,12681.3725000247,393091.788400023,231960.328800022,334143.724300025,334108.965900028,13404.8489000415,NA,NA,179693.458200025,13,91383.1170001067,14,0,25
93.3333333333333,96,6140.52796667286,"a","accuracy","ka2000mo","1","b","a","1","0","0",44,3,700,"Tue Mar 21 14:10:22 2023",2,"eher schwer","accuracy","Experiment.osexp","Bild_s2_b_7.png",1080,"mo",2000,"ka","blaue","C:/Users/steff/Documents/Universität/Master Psychologie/SS 2022/Masterarbeit/Experiment/subject-4.csv",0,0,0,"l",50,50,"a","a",724.802499986254,724.802499986254,4,301721.696600027,395252.019800013,370242.493700003,231961.394999991,334075.413500017,395977.624099993,394944.04490001,44714.6571000339,NA,334148.032199999,12681.1599000357,NA,329076.861900045,394950.981400034,394398.349000025,387095.335600025,325239.469600026,370350.520200038,288693.362799997,13422.6291000377,63882.762800029,91678.7353000254,129762.063100003,171312.974500004,173677.740400017,370350.630900008,395977.69520001,373577.606300008,301721.719100024,385026.232600037,308550.55460002,NA,328620.082400041,394097.636400023,324861.334900022,NA,NA,NA,NA,NA,370343.35510002,231961.212299997,288686.380800034,387095.265500015,325239.396599995,370242.430500046,370187.046100036,394393.031899992,12681.3220000477,395252.112000016,12681.3725000247,394943.966399995,231960.328800022,334143.724300025,334108.965900028,13404.8489000415,NA,NA,179693.458200025,14,92107.919500093,15,0,25
93.75,96,5798.34775625568,"a","accuracy","ka2000mo","1","o","l","1","0","0",45,3,700,"Tue Mar 21 14:10:22 2023",2,"eher schwer","accuracy","Experiment.osexp","Bild_s2_o_16.png",1080,"mo",2000,"ka","blaue","C:/Users/steff/Documents/Universität/Master Psychologie/SS 2022/Masterarbeit/Experiment/subject-4.csv",0,0,0,"l",55,55,"l","l",665.644599997904,665.644599997904,4,301721.696600027,397151.525399997,370242.493700003,231961.394999991,334075.413500017,397817.881700001,396843.630500021,44714.6571000339,NA,334148.032199999,12681.1599000357,NA,329076.861900045,396850.888699992,396299.149100029,387095.335600025,325239.469600026,370350.520200038,288693.362799997,13422.6291000377,63882.762800029,91678.7353000254,129762.063100003,171312.974500004,173677.740400017,370350.630900008,397817.953100021,373577.606300008,301721.719100024,385026.232600037,308550.55460002,NA,328620.082400041,395998.287900002,324861.334900022,NA,NA,NA,NA,NA,370343.35510002,231961.212299997,288686.380800034,387095.265500015,325239.396599995,370242.430500046,370187.046100036,396293.485100032,12681.3220000477,397151.608000044,12681.3725000247,396843.551500002,231960.328800022,334143.724300025,334108.965900028,13404.8489000415,NA,NA,179693.458200025,15,92773.5641000909,16,0,25
94.1176470588235,96,5495.1463529484,"a","accuracy","ka2000mo","1","b","a","1","0","0",46,3,700,"Tue Mar 21 14:10:22 2023",2,"eher schwer","accuracy","Experiment.osexp","Bild_s2_b_17.png",1080,"mo",2000,"ka","blaue","C:/Users/steff/Documents/Universität/Master Psychologie/SS 2022/Masterarbeit/Experiment/subject-4.csv",0,0,0,"l",60,60,"a","a",643.92390003195,643.92390003195,4,301721.696600027,398996.893600037,370242.493700003,231961.394999991,334075.413500017,399641.716900049,398688.836500049,44714.6571000339,NA,334148.032199999,12681.1599000357,NA,329076.861900045,398695.801399997,398145.604500023,387095.335600025,325239.469600026,370350.520200038,288693.362799997,13422.6291000377,63882.762800029,91678.7353000254,129762.063100003,171312.974500004,173677.740400017,370350.630900008,399641.787400004,373577.606300008,301721.719100024,385026.232600037,308550.55460002,NA,328620.082400041,397845.052400022,324861.334900022,NA,NA,NA,NA,NA,370343.35510002,231961.212299997,288686.380800034,387095.265500015,325239.396599995,370242.430500046,370187.046100036,398140.278500039,12681.3220000477,398996.982100012,12681.3725000247,398688.754800009,231960.328800022,334143.724300025,334108.965900028,13404.8489000415,NA,NA,179693.458200025,16,93417.4880001228,17,0,25
88.8888888888889,96,5221.96695556179,"a","accuracy","ka2000mo","0","b","a","0","0","0",47,3,700,"Tue Mar 21 14:10:22 2023",2,"eher schwer","accuracy","Experiment.osexp","Bild_s2_b_20.png",1080,"mo",2000,"ka","blaue","C:/Users/steff/Documents/Universität/Master Psychologie/SS 2022/Masterarbeit/Experiment/subject-4.csv",1,0,0,"l",50,50,"l","l",577.917199989315,577.917199989315,4,301721.696600027,400822.906900023,370242.493700003,231961.394999991,334075.413500017,401401.579099998,400514.433700009,44714.6571000339,NA,334148.032199999,12681.1599000357,NA,329076.861900045,400521.392900031,399969.085000048,387095.335600025,325239.469600026,370350.520200038,288693.362799997,13422.6291000377,63882.762800029,91678.7353000254,129762.063100003,171312.974500004,173677.740400017,370350.630900008,401401.649100007,373577.606300008,301721.719100024,385026.232600037,308550.55460002,NA,328620.082400041,399668.071700027,324861.334900022,NA,NA,NA,NA,NA,370343.35510002,231961.212299997,288686.380800034,387095.265500015,325239.396599995,370242.430500046,370187.046100036,399963.6512,12681.3220000477,400822.997700016,12681.3725000247,400514.28490004,231960.328800022,334143.724300025,334108.965900028,13404.8489000415,NA,NA,179693.458200025,16,93995.4052001122,18,0,25
89.4736842105263,96,4990.55137895477,"a","accuracy","ka2000mo","1","o","l","1","0","0",48,3,700,"Tue Mar 21 14:10:22 2023",3,"sehr schwer","accuracy","Experiment.osexp","Bild_s1_o_13.png",1080,"mo",2000,"ka","blaue","C:/Users/steff/Documents/Universität/Master Psychologie/SS 2022/Masterarbeit/Experiment/subject-4.csv",0,0,0,"l",55,55,"l","l",825.071000028402,825.071000028402,4,301721.696600027,402607.753599994,370242.493700003,231961.394999991,334075.413500017,403433.419400011,402299.797900021,44714.6571000339,NA,334148.032199999,12681.1599000357,NA,329076.861900045,402307.120000012,401716.627300018,401795.88650004,325239.469600026,370350.520200038,288693.362799997,13422.6291000377,63882.762800029,91678.7353000254,129762.063100003,171312.974500004,173677.740400017,370350.630900008,403433.491400036,373577.606300008,301721.719100024,401416.150100005,308550.55460002,NA,328620.082400041,399668.071700027,324861.334900022,NA,NA,NA,NA,NA,370343.35510002,231961.212299997,288686.380800034,401795.815600024,325239.396599995,370242.430500046,370187.046100036,401711.211799993,12681.3220000477,402607.832600013,12681.3725000247,402299.716500042,231960.328800022,334143.724300025,334108.965900028,13404.8489000415,NA,NA,179693.458200025,17,94820.4762001406,19,0,25
90,96,4780.26977500704,"a","accuracy","ka2000mo","1","o","l","1","0","0",49,3,700,"Tue Mar 21 14:10:22 2023",3,"sehr schwer","accuracy","Experiment.osexp","Bild_s1_o_4.png",1080,"mo",2000,"ka","blaue","C:/Users/steff/Documents/Universität/Master Psychologie/SS 2022/Masterarbeit/Experiment/subject-4.csv",0,0,0,"l",60,60,"l","l",784.919300000183,784.919300000183,4,301721.696600027,404599.902100046,370242.493700003,231961.394999991,334075.413500017,405385.645600036,404291.921199998,44714.6571000339,NA,334148.032199999,12681.1599000357,NA,329076.861900045,404299.151000043,403753.593600006,401795.88650004,325239.469600026,370350.520200038,288693.362799997,13422.6291000377,63882.762800029,91678.7353000254,129762.063100003,171312.974500004,173677.740400017,370350.630900008,405385.719900019,373577.606300008,301721.719100024,401416.150100005,308550.55460002,NA,328620.082400041,403452.957400004,324861.334900022,NA,NA,NA,NA,NA,370343.35510002,231961.212299997,288686.380800034,401795.815600024,325239.396599995,370242.430500046,370187.046100036,403748.106600018,12681.3220000477,404599.990900024,12681.3725000247,404291.844099993,231960.328800022,334143.724300025,334108.965900028,13404.8489000415,NA,NA,179693.458200025,18,95605.3955001407,20,0,25
90.4761904761905,96,4586.87656667427,"a","accuracy","ka2000mo","1","b","a","1","0","0",50,3,700,"Tue Mar 21 14:10:22 2023",3,"sehr schwer","accuracy","Experiment.osexp","Bild_s1_b_21.png",1080,"mo",2000,"ka","blaue","C:/Users/steff/Documents/Universität/Master Psychologie/SS 2022/Masterarbeit/Experiment/subject-4.csv",0,0,0,"l",65,65,"a","a",719.012400018983,719.012400018983,4,301721.696600027,406569.810500019,370242.493700003,231961.394999991,334075.413500017,407289.605500002,406261.334400042,44714.6571000339,NA,334148.032199999,12681.1599000357,NA,329076.861900045,406268.071400002,405717.842000013,401795.88650004,325239.469600026,370350.520200038,288693.362799997,13422.6291000377,63882.762800029,91678.7353000254,129762.063100003,171312.974500004,173677.740400017,370350.630900008,407289.677000022,373577.606300008,301721.719100024,401416.150100005,308550.55460002,NA,328620.082400041,405417.410399998,324861.334900022,NA,NA,NA,NA,NA,370343.35510002,231961.212299997,288686.380800034,401795.815600024,325239.396599995,370242.430500046,370187.046100036,405712.5199,12681.3220000477,406569.899900001,12681.3725000247,406261.250500043,231960.328800022,334143.724300025,334108.965900028,13404.8489000415,NA,NA,179693.458200025,19,96324.4079001597,21,0,25
86.3636363636364,96,4410.95259546207,"a","accuracy","ka2000mo","0","o","l","0","0","0",51,3,700,"Tue Mar 21 14:10:22 2023",3,"sehr schwer","accuracy","Experiment.osexp","Bild_s1_o_1.png",1080,"mo",2000,"ka","blaue","C:/Users/steff/Documents/Universität/Master Psychologie/SS 2022/Masterarbeit/Experiment/subject-4.csv",1,0,0,"l",55,55,"a","a",716.549200005829,716.549200005829,4,301721.696600027,408460.165299999,370242.493700003,231961.394999991,334075.413500017,409177.551600034,408152.419499995,44714.6571000339,NA,334148.032199999,12681.1599000357,NA,329076.861900045,408159.513599996,407610.966400011,401795.88650004,325239.469600026,370350.520200038,288693.362799997,13422.6291000377,63882.762800029,91678.7353000254,129762.063100003,171312.974500004,173677.740400017,370350.630900008,409177.626400022,373577.606300008,301721.719100024,401416.150100005,308550.55460002,NA,328620.082400041,407310.257400037,324861.334900022,NA,NA,NA,NA,NA,370343.35510002,231961.212299997,288686.380800034,401795.815600024,325239.396599995,370242.430500046,370187.046100036,407605.592100008,12681.3220000477,408460.343500017,12681.3725000247,408152.338300017,231960.328800022,334143.724300025,334108.965900028,13404.8489000415,NA,NA,179693.458200025,19,97040.9571001655,22,0,25
86.9565217391304,96,4252.05752174572,"a","accuracy","ka2000mo","1","b","a","1","0","0",52,3,700,"Tue Mar 21 14:10:22 2023",3,"sehr schwer","accuracy","Experiment.osexp","Bild_s1_b_15.png",1080,"mo",2000,"ka","blaue","C:/Users/steff/Documents/Universität/Master Psychologie/SS 2022/Masterarbeit/Experiment/subject-4.csv",0,0,0,"l",60,60,"a","a",756.365899986122,756.365899986122,4,301721.696600027,410356.372300012,370242.493700003,231961.394999991,334075.413500017,411113.767400035,410048.620800022,44714.6571000339,NA,334148.032199999,12681.1599000357,NA,329076.861900045,410055.743900011,409504.837899993,401795.88650004,325239.469600026,370350.520200038,288693.362799997,13422.6291000377,63882.762800029,91678.7353000254,129762.063100003,171312.974500004,173677.740400017,370350.630900008,411113.841600018,373577.606300008,301721.719100024,409204.265400011,308550.55460002,NA,328620.082400041,407310.257400037,324861.334900022,NA,NA,NA,NA,NA,370343.35510002,231961.212299997,288686.380800034,401795.815600024,325239.396599995,370242.430500046,370187.046100036,409499.47390001,12681.3220000477,410356.550200027,12681.3725000247,410048.542300006,231960.328800022,334143.724300025,334108.965900028,13404.8489000415,NA,NA,179693.458200025,20,97797.3230001517,23,0,25
87.5,96,4100.19139584135,"a","accuracy","ka2000mo","1","o","l","1","0","0",53,3,700,"Tue Mar 21 14:10:22 2023",3,"sehr schwer","accuracy","Experiment.osexp","Bild_s1_o_9.png",1080,"mo",2000,"ka","blaue","C:/Users/steff/Documents/Universität/Master Psychologie/SS 2022/Masterarbeit/Experiment/subject-4.csv",0,0,0,"l",65,65,"l","l",607.270500040613,607.270500040613,4,301721.696600027,412297.455199994,370242.493700003,231961.394999991,334075.413500017,412905.62080004,411989.625400049,44714.6571000339,NA,334148.032199999,12681.1599000357,NA,329076.861900045,411996.861500025,411438.694900018,401795.88650004,325239.469600026,370350.520200038,288693.362799997,13422.6291000377,63882.762800029,91678.7353000254,129762.063100003,171312.974500004,173677.740400017,370350.630900008,412905.691499996,373577.606300008,301721.719100024,409204.265400011,308550.55460002,NA,328620.082400041,411137.918299995,324861.334900022,NA,NA,NA,NA,NA,370343.35510002,231961.212299997,288686.380800034,401795.815600024,325239.396599995,370242.430500046,370187.046100036,411433.34670004,12681.3220000477,412297.639500001,12681.3725000247,411989.547200035,231960.328800022,334143.724300025,334108.965900028,13404.8489000415,NA,NA,179693.458200025,21,98404.5935001923,24,0,25
88,96,3960.26037600823,"a","accuracy","ka2000mo","1","b","a","1","0","0",54,3,700,"Tue Mar 21 14:10:22 2023",3,"sehr schwer","accuracy","Experiment.osexp","Bild_s1_b_13.png",1080,"mo",2000,"ka","blaue","C:/Users/steff/Documents/Universität/Master Psychologie/SS 2022/Masterarbeit/Experiment/subject-4.csv",0,0,0,"l",70,70,"a","a",601.91590001341,601.91590001341,4,301721.696600027,414094.889900007,370242.493700003,231961.394999991,334075.413500017,414697.752700013,413786.722000048,44714.6571000339,NA,334148.032199999,12681.1599000357,NA,329076.861900045,413793.65430004,413234.981600021,401795.88650004,325239.469600026,370350.520200038,288693.362799997,13422.6291000377,63882.762800029,91678.7353000254,129762.063100003,171312.974500004,173677.740400017,370350.630900008,414697.825300042,373577.606300008,301721.719100024,409204.265400011,308550.55460002,NA,328620.082400041,412934.374900011,324861.334900022,NA,NA,NA,NA,NA,370343.35510002,231961.212299997,288686.380800034,401795.815600024,325239.396599995,370242.430500046,370187.046100036,413229.52980001,12681.3220000477,414094.976800028,12681.3725000247,413786.642000021,231960.328800022,334143.724300025,334108.965900028,13404.8489000415,NA,NA,179693.458200025,22,99006.5094002057,25,0,25
88.4615384615385,96,3839.55784231568,"a","accuracy","ka2000mo","1","b","a","1","0","0",55,3,700,"Tue Mar 21 14:10:22 2023",3,"sehr schwer","accuracy","Experiment.osexp","Bild_s1_b_18.png",1080,"mo",2000,"ka","blaue","C:/Users/steff/Documents/Universität/Master Psychologie/SS 2022/Masterarbeit/Experiment/subject-4.csv",0,0,0,"l",75,75,"a","a",821.994500001892,821.994500001892,4,301721.696600027,415874.811000016,370242.493700003,231961.394999991,334075.413500017,416697.564000031,415566.390499996,44714.6571000339,NA,334148.032199999,12681.1599000357,NA,329076.861900045,415573.832000024,415022.140300018,401795.88650004,325239.469600026,370350.520200038,288693.362799997,13422.6291000377,63882.762800029,91678.7353000254,129762.063100003,171312.974500004,173677.740400017,370350.630900008,416697.634900047,373577.606300008,301721.719100024,409204.265400011,308550.55460002,NA,328620.082400041,414721.69700003,324861.334900022,NA,NA,NA,NA,NA,370343.35510002,231961.212299997,288686.380800034,401795.815600024,325239.396599995,370242.430500046,370187.046100036,415016.744200024,12681.3220000477,415874.902200012,12681.3725000247,415566.307500005,231960.328800022,334143.724300025,334108.965900028,13404.8489000415,NA,NA,179693.458200025,23,99828.5039002076,26,0,25
88.8888888888889,96,3720.20994074841,"a","accuracy","ka2000mo","1","o","l","1","0","0",56,3,700,"Tue Mar 21 14:10:22 2023",3,"sehr schwer","accuracy","Experiment.osexp","Bild_s1_o_22.png",1080,"mo",2000,"ka","blaue","C:/Users/steff/Documents/Universität/Master Psychologie/SS 2022/Masterarbeit/Experiment/subject-4.csv",0,0,0,"l",80,80,"l","l",617.16449999949,617.16449999949,4,301721.696600027,417903.622700018,370242.493700003,231961.394999991,334075.413500017,418521.560800029,417595.485700003,44714.6571000339,NA,334148.032199999,12681.1599000357,NA,329076.861900045,417602.426099998,417014.51030001,417085.976400005,325239.469600026,370350.520200038,288693.362799997,13422.6291000377,63882.762800029,91678.7353000254,129762.063100003,171312.974500004,173677.740400017,370350.630900008,418521.632499993,373577.606300008,301721.719100024,409204.265400011,308550.55460002,NA,328620.082400041,416713.918299996,324861.334900022,NA,NA,NA,NA,NA,370343.35510002,231961.212299997,288686.380800034,417085.906399996,325239.396599995,370242.430500046,370187.046100036,417009.09430004,12681.3220000477,417903.736600012,12681.3725000247,417595.404600026,231960.328800022,334143.724300025,334108.965900028,13404.8489000415,NA,NA,179693.458200025,24,100445.668400207,27,0,25
89.2857142857143,96,3606.5753964358,"a","accuracy","ka2000mo","1","o","l","1","0","0",57,3,700,"Tue Mar 21 14:10:22 2023",3,"sehr schwer","accuracy","Experiment.osexp","Bild_s1_o_3.png",1080,"mo",2000,"ka","blaue","C:/Users/steff/Documents/Universität/Master Psychologie/SS 2022/Masterarbeit/Experiment/subject-4.csv",0,0,0,"l",85,85,"l","l",538.442699995358,538.442699995358,4,301721.696600027,419694.260600023,370242.493700003,231961.394999991,334075.413500017,420233.548899996,419385.713400028,44714.6571000339,NA,334148.032199999,12681.1599000357,NA,329076.861900045,419392.865900008,418840.270400047,417085.976400005,325239.469600026,370350.520200038,288693.362799997,13422.6291000377,63882.762800029,91678.7353000254,129762.063100003,171312.974500004,173677.740400017,370350.630900008,420233.621900028,373577.606300008,301721.719100024,409204.265400011,308550.55460002,NA,328620.082400041,418539.026600018,324861.334900022,NA,NA,NA,NA,NA,370343.35510002,231961.212299997,288686.380800034,417085.906399996,325239.396599995,370242.430500046,370187.046100036,418834.940600034,12681.3220000477,419694.442100008,12681.3725000247,419385.634700011,231960.328800022,334143.724300025,334108.965900028,13404.8489000415,NA,NA,179693.458200025,25,100984.111100202,28,0,25
89.6551724137931,96,3503.46015862807,"a","accuracy","ka2000mo","1","o","l","1","0","0",58,3,700,"Tue Mar 21 14:10:22 2023",3,"sehr schwer","accuracy","Experiment.osexp","Bild_s1_o_18.png",1080,"mo",2000,"ka","blaue","C:/Users/steff/Documents/Universität/Master Psychologie/SS 2022/Masterarbeit/Experiment/subject-4.csv",0,0,0,"l",90,90,"l","l",616.233500011731,616.233500011731,4,301721.696600027,421408.510500041,370242.493700003,231961.394999991,334075.413500017,422025.725900021,421100.868600013,44714.6571000339,NA,334148.032199999,12681.1599000357,NA,329076.861900045,421108.166999999,420562.603200029,417085.976400005,325239.469600026,370350.520200038,288693.362799997,13422.6291000377,63882.762800029,91678.7353000254,129762.063100003,171312.974500004,173677.740400017,370350.630900008,422025.798999995,373577.606300008,301721.719100024,409204.265400011,308550.55460002,NA,328620.082400041,420262.026600016,324861.334900022,NA,NA,NA,NA,NA,370343.35510002,231961.212299997,288686.380800034,417085.906399996,325239.396599995,370242.430500046,370187.046100036,420557.314000034,12681.3220000477,421408.667300013,12681.3725000247,421100.788400043,231960.328800022,334143.724300025,334108.965900028,13404.8489000415,NA,NA,179693.458200025,26,101600.344600214,29,0,25
90,96,3403.20048000625,"a","accuracy","ka2000mo","1","b","a","1","0","0",59,3,700,"Tue Mar 21 14:10:22 2023",3,"sehr schwer","accuracy","Experiment.osexp","Bild_s1_b_6.png",1080,"mo",2000,"ka","blaue","C:/Users/steff/Documents/Universität/Master Psychologie/SS 2022/Masterarbeit/Experiment/subject-4.csv",0,0,0,"l",95,95,"a","a",495.669799973257,495.669799973257,4,301721.696600027,423193.143100012,370242.493700003,231961.394999991,334075.413500017,423689.693699998,422885.304700001,44714.6571000339,NA,334148.032199999,12681.1599000357,NA,329076.861900045,422892.466599995,422342.756099999,417085.976400005,325239.469600026,370350.520200038,288693.362799997,13422.6291000377,63882.762800029,91678.7353000254,129762.063100003,171312.974500004,173677.740400017,370350.630900008,423689.764400013,373577.606300008,301721.719100024,409204.265400011,308550.55460002,NA,328620.082400041,422041.488800023,324861.334900022,NA,NA,NA,NA,NA,370343.35510002,231961.212299997,288686.380800034,417085.906399996,325239.396599995,370242.430500046,370187.046100036,422337.448500039,12681.3220000477,423193.223500042,12681.3725000247,422885.225100035,231960.328800022,334143.724300025,334108.965900028,13404.8489000415,NA,NA,179693.458200025,27,102096.014400187,30,0,25
90.3225806451613,96,3307.66582581207,"a","accuracy","ka2000mo","1","b","a","1","0","0",60,3,700,"Tue Mar 21 14:10:22 2023",3,"sehr schwer","accuracy","Experiment.osexp","Bild_s1_b_10.png",1080,"mo",2000,"ka","blaue","C:/Users/steff/Documents/Universität/Master Psychologie/SS 2022/Masterarbeit/Experiment/subject-4.csv",0,0,0,"l",100,100,"a","a",441.626199986786,441.626199986786,4,301721.696600027,424863.612500019,370242.493700003,231961.394999991,334075.413500017,425306.241000013,424555.39970001,44714.6571000339,NA,334148.032199999,12681.1599000357,NA,329076.861900045,424562.188000011,424019.26900004,417085.976400005,325239.469600026,370350.520200038,288693.362799997,13422.6291000377,63882.762800029,91678.7353000254,129762.063100003,171312.974500004,173677.740400017,370350.630900008,425306.311700027,373577.606300008,301721.719100024,409204.265400011,308550.55460002,NA,328620.082400041,423718.616100028,324861.334900022,NA,NA,NA,NA,NA,370343.35510002,231961.212299997,288686.380800034,417085.906399996,325239.396599995,370242.430500046,370187.046100036,424013.817100029,12681.3220000477,424863.698300032,12681.3725000247,424555.322700005,231960.328800022,334143.724300025,334108.965900028,13404.8489000415,NA,NA,179693.458200025,28,102537.640600174,31,0,25
90.625,96,3219.8644593791,"a","accuracy","ka2000mo","1","o","l","1","0","0",61,3,700,"Tue Mar 21 14:10:22 2023",3,"sehr schwer","accuracy","Experiment.osexp","Bild_s1_o_20.png",1080,"mo",2000,"ka","blaue","C:/Users/steff/Documents/Universität/Master Psychologie/SS 2022/Masterarbeit/Experiment/subject-4.csv",0,0,0,"l",105,105,"l","l",498.02209995687,498.02209995687,4,301721.696600027,426486.795400036,370242.493700003,231961.394999991,334075.413500017,426985.646400019,426178.480600007,44714.6571000339,NA,334148.032199999,12681.1599000357,NA,329076.861900045,426185.758600011,425636.831400043,417085.976400005,325239.469600026,370350.520200038,288693.362799997,13422.6291000377,63882.762800029,91678.7353000254,129762.063100003,171312.974500004,173677.740400017,370350.630900008,426985.735900002,373577.606300008,301721.719100024,409204.265400011,308550.55460002,NA,328620.082400041,425336.333200044,324861.334900022,NA,NA,NA,NA,NA,370343.35510002,231961.212299997,288686.380800034,417085.906399996,325239.396599995,370242.430500046,370187.046100036,425631.462700025,12681.3220000477,426486.872800044,12681.3725000247,426178.403500002,231960.328800022,334143.724300025,334108.965900028,13404.8489000415,NA,NA,179693.458200025,29,103035.662700131,32,0,25
87.8787878787879,96,3142.35516970053,"a","accuracy","ka2000mo","0","b","a","0","0","0",62,3,700,"Tue Mar 21 14:10:22 2023",3,"sehr schwer","accuracy","Experiment.osexp","Bild_s1_b_19.png",1080,"mo",2000,"ka","blaue","C:/Users/steff/Documents/Universität/Master Psychologie/SS 2022/Masterarbeit/Experiment/subject-4.csv",1,0,0,"l",95,95,"l","l",662.057899986394,662.057899986394,4,301721.696600027,428162.740400003,370242.493700003,231961.394999991,334075.413500017,428825.652700034,427855.106500036,44714.6571000339,NA,334148.032199999,12681.1599000357,NA,329076.861900045,427862.057999999,427312.921000004,417085.976400005,325239.469600026,370350.520200038,288693.362799997,13422.6291000377,63882.762800029,91678.7353000254,129762.063100003,171312.974500004,173677.740400017,370350.630900008,428825.724399998,373577.606300008,301721.719100024,409204.265400011,308550.55460002,NA,328620.082400041,427012.413499993,324861.334900022,NA,NA,NA,NA,NA,370343.35510002,231961.212299997,288686.380800034,417085.906399996,325239.396599995,370242.430500046,370187.046100036,427307.591299992,12681.3220000477,428162.821000034,12681.3725000247,427855.027700018,231960.328800022,334143.724300025,334108.965900028,13404.8489000415,NA,NA,179693.458200025,29,103697.720600117,33,0,25
85.2941176470588,96,3066.84746176881,"a","accuracy","ka2000mo","0","o","l","0","0","0",63,3,700,"Tue Mar 21 14:10:22 2023",3,"sehr schwer","accuracy","Experiment.osexp","Bild_s1_o_24.png",1080,"mo",2000,"ka","blaue","C:/Users/steff/Documents/Universität/Master Psychologie/SS 2022/Masterarbeit/Experiment/subject-4.csv",1,0,0,"l",85,85,"a","a",575.093100022059,575.093100022059,4,301721.696600027,429993.723799998,370242.493700003,231961.394999991,334075.413500017,430569.689800031,429685.622600024,44714.6571000339,NA,334148.032199999,12681.1599000357,NA,329076.861900045,429692.603700038,429144.438599993,417085.976400005,325239.469600026,370350.520200038,288693.362799997,13422.6291000377,63882.762800029,91678.7353000254,129762.063100003,171312.974500004,173677.740400017,370350.630900008,430569.760700047,373577.606300008,301721.719100024,428843.729800021,308550.55460002,NA,328620.082400041,427012.413499993,324861.334900022,NA,NA,NA,NA,NA,370343.35510002,231961.212299997,288686.380800034,417085.906399996,325239.396599995,370242.430500046,370187.046100036,429139.048500045,12681.3220000477,429993.810900021,12681.3725000247,429685.543500003,231960.328800022,334143.724300025,334108.965900028,13404.8489000415,NA,NA,179693.458200025,29,104272.81370014,34,0,25
85.7142857142857,96,3005.35830000382,"a","accuracy","ka2000mo","1","o","l","1","0","0",64,3,700,"Tue Mar 21 14:10:22 2023",2,"eher schwer","accuracy","Experiment.osexp","Bild_s2_o_5.png",1080,"mo",2000,"ka","blaue","C:/Users/steff/Documents/Universität/Master Psychologie/SS 2022/Masterarbeit/Experiment/subject-4.csv",0,0,0,"l",90,90,"l","l",914.726799994241,914.726799994241,4,301721.696600027,431782.085500017,370242.493700003,231961.394999991,334075.413500017,432697.731500026,431474.087900016,44714.6571000339,NA,334148.032199999,12681.1599000357,NA,329076.861900045,431481.157300004,430894.009800046,430967.258599994,325239.469600026,370350.520200038,288693.362799997,13422.6291000377,63882.762800029,91678.7353000254,129762.063100003,171312.974500004,173677.740400017,370350.630900008,432697.806100012,373577.606300008,301721.719100024,430592.901800002,308550.55460002,NA,328620.082400041,427012.413499993,324861.334900022,NA,NA,NA,NA,NA,370343.35510002,231961.212299997,288686.380800034,430967.188400042,325239.396599995,370242.430500046,370187.046100036,430888.648500026,12681.3220000477,431782.172500039,12681.3725000247,431474.007300043,231960.328800022,334143.724300025,334108.965900028,13404.8489000415,NA,NA,179693.458200025,30,105187.540500134,35,0,25
83.3333333333333,96,2937.17270278204,"a","accuracy","ka2000mo","0","o","l","0","0","0",65,3,700,"Tue Mar 21 14:10:22 2023",2,"eher schwer","accuracy","Experiment.osexp","Bild_s2_o_6.png",1080,"mo",2000,"ka","blaue","C:/Users/steff/Documents/Universität/Master Psychologie/SS 2022/Masterarbeit/Experiment/subject-4.csv",1,0,0,"l",80,80,"a","a",550.676800019573,550.676800019573,4,301721.696600027,433874.123400019,370242.493700003,231961.394999991,334075.413500017,434425.614600012,433565.455700038,44714.6571000339,NA,334148.032199999,12681.1599000357,NA,329076.861900045,433572.828500008,433015.092700021,430967.258599994,325239.469600026,370350.520200038,288693.362799997,13422.6291000377,63882.762800029,91678.7353000254,129762.063100003,171312.974500004,173677.740400017,370350.630900008,434425.685900031,373577.606300008,301721.719100024,430592.901800002,308550.55460002,NA,328620.082400041,432714.170899999,324861.334900022,NA,NA,NA,NA,NA,370343.35510002,231961.212299997,288686.380800034,430967.188400042,325239.396599995,370242.430500046,370187.046100036,433009.708099999,12681.3220000477,433874.207000015,12681.3725000247,433565.376600018,231960.328800022,334143.724300025,334108.965900028,13404.8489000415,NA,NA,179693.458200025,30,105738.217300153,36,0,25
83.7837837837838,96,2875.66437567993,"a","accuracy","ka2000mo","1","b","a","1","0","0",66,3,700,"Tue Mar 21 14:10:22 2023",2,"eher schwer","accuracy","Experiment.osexp","Bild_s2_b_4.png",1080,"mo",2000,"ka","blaue","C:/Users/steff/Documents/Universität/Master Psychologie/SS 2022/Masterarbeit/Experiment/subject-4.csv",0,0,0,"l",85,85,"a","a",661.364600004163,661.364600004163,4,301721.696600027,435603.429200011,370242.493700003,231961.394999991,334075.413500017,436265.766200027,435295.432100014,44714.6571000339,NA,334148.032199999,12681.1599000357,NA,329076.861900045,435302.732300013,434756.282499991,430967.258599994,325239.469600026,370350.520200038,288693.362799997,13422.6291000377,63882.762800029,91678.7353000254,129762.063100003,171312.974500004,173677.740400017,370350.630900008,436265.839700005,373577.606300008,301721.719100024,434452.976800036,308550.55460002,NA,328620.082400041,432714.170899999,324861.334900022,NA,NA,NA,NA,NA,370343.35510002,231961.212299997,288686.380800034,430967.188400042,325239.396599995,370242.430500046,370187.046100036,434748.206700024,12681.3220000477,435603.511499998,12681.3725000247,435295.351100038,231960.328800022,334143.724300025,334108.965900028,13404.8489000415,NA,NA,179693.458200025,31,106399.581900158,37,0,25
84.2105263157895,96,2816.24582105647,"a","accuracy","ka2000mo","1","b","a","1","0","0",67,3,700,"Tue Mar 21 14:10:22 2023",2,"eher schwer","accuracy","Experiment.osexp","Bild_s2_b_8.png",1080,"mo",2000,"ka","blaue","C:/Users/steff/Documents/Universität/Master Psychologie/SS 2022/Masterarbeit/Experiment/subject-4.csv",0,0,0,"l",90,90,"a","a",617.759299988393,617.759299988393,4,301721.696600027,437439.037300006,370242.493700003,231961.394999991,334075.413500017,438057.645399997,437130.689700018,44714.6571000339,NA,334148.032199999,12681.1599000357,NA,329076.861900045,437137.918299995,436579.30480002,430967.258599994,325239.469600026,370350.520200038,288693.362799997,13422.6291000377,63882.762800029,91678.7353000254,129762.063100003,171312.974500004,173677.740400017,370350.630900008,438057.716700016,373577.606300008,301721.719100024,434452.976800036,308550.55460002,NA,328620.082400041,436278.395800036,324861.334900022,NA,NA,NA,NA,NA,370343.35510002,231961.212299997,288686.380800034,430967.188400042,325239.396599995,370242.430500046,370187.046100036,436573.888000043,12681.3220000477,437439.118900045,12681.3725000247,437130.608300038,231960.328800022,334143.724300025,334108.965900028,13404.8489000415,NA,NA,179693.458200025,32,107017.341200146,38,0,25
84.6153846153846,96,2760.66299743849,"a","accuracy","ka2000mo","1","o","l","1","0","0",68,3,700,"Tue Mar 21 14:10:22 2023",2,"eher schwer","accuracy","Experiment.osexp","Bild_s2_o_15.png",1080,"mo",2000,"ka","blaue","C:/Users/steff/Documents/Universität/Master Psychologie/SS 2022/Masterarbeit/Experiment/subject-4.csv",0,0,0,"l",95,95,"l","l",648.515699955169,648.515699955169,4,301721.696600027,439248.278600047,370242.493700003,231961.394999991,334075.413500017,439897.773200006,438940.204900049,44714.6571000339,NA,334148.032199999,12681.1599000357,NA,329076.861900045,438947.285300004,438392.684200022,430967.258599994,325239.469600026,370350.520200038,288693.362799997,13422.6291000377,63882.762800029,91678.7353000254,129762.063100003,171312.974500004,173677.740400017,370350.630900008,439897.845500032,373577.606300008,301721.719100024,434452.976800036,308550.55460002,NA,328620.082400041,438092.169100011,324861.334900022,NA,NA,NA,NA,NA,370343.35510002,231961.212299997,288686.380800034,430967.188400042,325239.396599995,370242.430500046,370187.046100036,438387.340200017,12681.3220000477,439248.369500041,12681.3725000247,438940.125800029,231960.328800022,334143.724300025,334108.965900028,13404.8489000415,NA,NA,179693.458200025,33,107665.856900101,39,0,25
85,96,2705.25490500295,"a","accuracy","ka2000mo","1","b","a","1","0","0",69,3,700,"Tue Mar 21 14:10:22 2023",2,"eher schwer","accuracy","Experiment.osexp","Bild_s2_b_10.png",1080,"mo",2000,"ka","blaue","C:/Users/steff/Documents/Universität/Master Psychologie/SS 2022/Masterarbeit/Experiment/subject-4.csv",0,0,0,"l",100,100,"a","a",544.339300016873,544.339300016873,4,301721.696600027,441080.450500012,370242.493700003,231961.394999991,334075.413500017,441625.775600027,440772.493400029,44714.6571000339,NA,334148.032199999,12681.1599000357,NA,329076.861900045,440779.686300026,440227.184000018,430967.258599994,325239.469600026,370350.520200038,288693.362799997,13422.6291000377,63882.762800029,91678.7353000254,129762.063100003,171312.974500004,173677.740400017,370350.630900008,441625.848399999,373577.606300008,301721.719100024,434452.976800036,308550.55460002,NA,328620.082400041,439926.583399996,324861.334900022,NA,NA,NA,NA,NA,370343.35510002,231961.212299997,288686.380800034,430967.188400042,325239.396599995,370242.430500046,370187.046100036,440221.798400045,12681.3220000477,441080.535800022,12681.3725000247,440772.360700008,231960.328800022,334143.724300025,334108.965900028,13404.8489000415,NA,NA,179693.458200025,34,108210.196200118,40,0,25
85.3658536585366,96,2654.58740488052,"a","accuracy","ka2000mo","1","b","a","1","0","0",70,3,700,"Tue Mar 21 14:10:22 2023",2,"eher schwer","accuracy","Experiment.osexp","Bild_s2_b_6.png",1080,"mo",2000,"ka","blaue","C:/Users/steff/Documents/Universität/Master Psychologie/SS 2022/Masterarbeit/Experiment/subject-4.csv",0,0,0,"l",105,105,"a","a",627.887399983592,627.887399983592,4,301721.696600027,442804.915999994,370242.493700003,231961.394999991,334075.413500017,443433.649000013,442497.010399995,44714.6571000339,NA,334148.032199999,12681.1599000357,NA,329076.861900045,442503.888300038,441947.11920002,430967.258599994,325239.469600026,370350.520200038,288693.362799997,13422.6291000377,63882.762800029,91678.7353000254,129762.063100003,171312.974500004,173677.740400017,370350.630900008,443433.720900037,373577.606300008,301721.719100024,434452.976800036,308550.55460002,NA,328620.082400041,441641.017600021,324861.334900022,NA,NA,NA,NA,NA,370343.35510002,231961.212299997,288686.380800034,430967.188400042,325239.396599995,370242.430500046,370187.046100036,441941.638100019,12681.3220000477,442804.997100029,12681.3725000247,442496.933400049,231960.328800022,334143.724300025,334108.965900028,13404.8489000415,NA,NA,179693.458200025,35,108838.083600102,41,0,25
85.7142857142857,96,2610.05990000142,"a","accuracy","ka2000mo","1","b","a","1","0","0",71,3,700,"Tue Mar 21 14:10:22 2023",2,"eher schwer","accuracy","Experiment.osexp","Bild_s2_b_1.png",1080,"mo",2000,"ka","blaue","C:/Users/steff/Documents/Universität/Master Psychologie/SS 2022/Masterarbeit/Experiment/subject-4.csv",0,0,0,"l",110,110,"a","a",784.432199958246,784.432199958246,4,301721.696600027,444616.2778,370242.493700003,231961.394999991,334075.413500017,445401.620000019,444308.516399993,44714.6571000339,NA,334148.032199999,12681.1599000357,NA,329076.861900045,444315.784100036,443763.027600013,430967.258599994,325239.469600026,370350.520200038,288693.362799997,13422.6291000377,63882.762800029,91678.7353000254,129762.063100003,171312.974500004,173677.740400017,370350.630900008,445401.691100036,373577.606300008,301721.719100024,434452.976800036,308550.55460002,NA,328620.082400041,443462.671200046,324861.334900022,NA,NA,NA,NA,NA,370343.35510002,231961.212299997,288686.380800034,430967.188400042,325239.396599995,370242.430500046,370187.046100036,443757.701100025,12681.3220000477,444616.443100036,12681.3725000247,444308.437300031,231960.328800022,334143.724300025,334108.965900028,13404.8489000415,NA,NA,179693.458200025,36,109622.51580006,42,0,25
86.046511627907,96,2563.83217442077,"a","accuracy","ka2000mo","1","b","a","1","0","0",72,3,700,"Tue Mar 21 14:10:22 2023",3,"sehr schwer","accuracy","Experiment.osexp","Bild_s1_b_17.png",1080,"mo",2000,"ka","blaue","C:/Users/steff/Documents/Universität/Master Psychologie/SS 2022/Masterarbeit/Experiment/subject-4.csv",0,0,0,"l",115,115,"a","a",622.267700033262,622.267700033262,4,301721.696600027,446602.435800014,370242.493700003,231961.394999991,334075.413500017,447225.580400031,446293.984299991,44714.6571000339,NA,334148.032199999,12681.1599000357,NA,329076.861900045,446301.18270003,445723.534000048,445796.825500031,325239.469600026,370350.520200038,288693.362799997,13422.6291000377,63882.762800029,91678.7353000254,129762.063100003,171312.974500004,173677.740400017,370350.630900008,447225.656300026,373577.606300008,301721.719100024,434452.976800036,308550.55460002,NA,328620.082400041,445423.181699996,324861.334900022,NA,NA,NA,NA,NA,370343.35510002,231961.212299997,288686.380800034,445796.749900037,325239.396599995,370242.430500046,370187.046100036,445718.077099998,12681.3220000477,446602.601499995,12681.3725000247,446293.903800019,231960.328800022,334143.724300025,334108.965900028,13404.8489000415,NA,NA,179693.458200025,37,110244.783500093,43,0,25
86.3636363636364,96,2520.70900681958,"a","accuracy","ka2000mo","1","b","a","1","0","0",73,3,700,"Tue Mar 21 14:10:22 2023",3,"sehr schwer","accuracy","Experiment.osexp","Bild_s1_b_5.png",1080,"mo",2000,"ka","blaue","C:/Users/steff/Documents/Universität/Master Psychologie/SS 2022/Masterarbeit/Experiment/subject-4.csv",0,0,0,"l",120,120,"a","a",666.412799968384,666.412799968384,4,301721.696600027,448398.283699993,370242.493700003,231961.394999991,334075.413500017,449065.670300042,448090.533400013,44714.6571000339,NA,334148.032199999,12681.1599000357,NA,329076.861900045,448097.635700018,447546.019900008,445796.825500031,325239.469600026,370350.520200038,288693.362799997,13422.6291000377,63882.762800029,91678.7353000254,129762.063100003,171312.974500004,173677.740400017,370350.630900008,449065.740699996,373577.606300008,301721.719100024,434452.976800036,308550.55460002,NA,328620.082400041,447245.504499995,324861.334900022,NA,NA,NA,NA,NA,370343.35510002,231961.212299997,288686.380800034,445796.749900037,325239.396599995,370242.430500046,370187.046100036,447540.668700007,12681.3220000477,448398.459000047,12681.3725000247,448090.456200007,231960.328800022,334143.724300025,334108.965900028,13404.8489000415,NA,NA,179693.458200025,38,110911.196300061,44,0,25
86.6666666666667,96,2481.90411555633,"a","accuracy","ka2000mo","1","o","l","1","0","0",74,3,700,"Tue Mar 21 14:10:22 2023",3,"sehr schwer","accuracy","Experiment.osexp","Bild_s1_o_11.png",1080,"mo",2000,"ka","blaue","C:/Users/steff/Documents/Universität/Master Psychologie/SS 2022/Masterarbeit/Experiment/subject-4.csv",0,0,0,"l",125,125,"l","l",774.488899973221,774.488899973221,4,301721.696600027,450242.306900036,370242.493700003,231961.394999991,334075.413500017,451017.780099995,449933.957300032,44714.6571000339,NA,334148.032199999,12681.1599000357,NA,329076.861900045,449941.256800026,449386.914500035,445796.825500031,325239.469600026,370350.520200038,288693.362799997,13422.6291000377,63882.762800029,91678.7353000254,129762.063100003,171312.974500004,173677.740400017,370350.630900008,451017.853200028,373577.606300008,301721.719100024,434452.976800036,308550.55460002,NA,328620.082400041,449086.400800035,324861.334900022,NA,NA,NA,NA,NA,370343.35510002,231961.212299997,288686.380800034,445796.749900037,325239.396599995,370242.430500046,370187.046100036,449381.603599992,12681.3220000477,450242.390000029,12681.3725000247,449933.87790001,231960.328800022,334143.724300025,334108.965900028,13404.8489000415,NA,NA,179693.458200025,39,111685.685200035,45,0,25
84.7826086956522,96,2441.50309565315,"a","accuracy","ka2000mo","0","o","l","0","0","0",75,3,700,"Tue Mar 21 14:10:22 2023",3,"sehr schwer","accuracy","Experiment.osexp","Bild_s1_o_7.png",1080,"mo",2000,"ka","blaue","C:/Users/steff/Documents/Universität/Master Psychologie/SS 2022/Masterarbeit/Experiment/subject-4.csv",1,0,0,"l",115,115,"a","a",623.457200010307,623.457200010307,4,301721.696600027,452201.250300044,370242.493700003,231961.394999991,334075.413500017,452825.622300035,451893.389600038,44714.6571000339,NA,334148.032199999,12681.1599000357,NA,329076.861900045,451900.622400048,451343.693400035,445796.825500031,325239.469600026,370350.520200038,288693.362799997,13422.6291000377,63882.762800029,91678.7353000254,129762.063100003,171312.974500004,173677.740400017,370350.630900008,452825.696200016,373577.606300008,301721.719100024,434452.976800036,308550.55460002,NA,328620.082400041,451042.23880003,324861.334900022,NA,NA,NA,NA,NA,370343.35510002,231961.212299997,288686.380800034,445796.749900037,325239.396599995,370242.430500046,370187.046100036,451338.290400046,12681.3220000477,452201.415100018,12681.3725000247,451893.306600046,231960.328800022,334143.724300025,334108.965900028,13404.8489000415,NA,NA,179693.458200025,39,112309.142400045,46,0,25
82.9787234042553,96,2402.62541702225,"a","accuracy","ka2000mo","0","b","a","0","0","0",76,3,700,"Tue Mar 21 14:10:22 2023",3,"sehr schwer","accuracy","Experiment.osexp","Bild_s1_b_16.png",1080,"mo",2000,"ka","blaue","C:/Users/steff/Documents/Universität/Master Psychologie/SS 2022/Masterarbeit/Experiment/subject-4.csv",1,0,0,"l",105,105,"l","l",614.252200000919,614.252200000919,4,301721.696600027,453986.536900047,370242.493700003,231961.394999991,334075.413500017,454601.834900037,453678.891399992,44714.6571000339,NA,334148.032199999,12681.1599000357,NA,329076.861900045,453685.740999994,453144.234600011,445796.825500031,325239.469600026,370350.520200038,288693.362799997,13422.6291000377,63882.762800029,91678.7353000254,129762.063100003,171312.974500004,173677.740400017,370350.630900008,454601.907300006,373577.606300008,301721.719100024,452843.586900039,308550.55460002,NA,328620.082400041,451042.23880003,324861.334900022,NA,NA,NA,NA,NA,370343.35510002,231961.212299997,288686.380800034,445796.749900037,325239.396599995,370242.430500046,370187.046100036,453138.737600006,12681.3220000477,453986.626600032,12681.3725000247,453678.807100048,231960.328800022,334143.724300025,334108.965900028,13404.8489000415,NA,NA,179693.458200025,39,112923.394600046,47,0,25
83.3333333333333,96,2368.19382708442,"a","accuracy","ka2000mo","1","o","l","1","0","0",77,3,700,"Tue Mar 21 14:10:22 2023",3,"sehr schwer","accuracy","Experiment.osexp","Bild_s1_o_6.png",1080,"mo",2000,"ka","blaue","C:/Users/steff/Documents/Universität/Master Psychologie/SS 2022/Masterarbeit/Experiment/subject-4.csv",0,0,0,"l",110,110,"l","l",749.909100006334,749.909100006334,4,301721.696600027,455786.865800037,370242.493700003,231961.394999991,334075.413500017,456537.869799999,455478.992899996,44714.6571000339,NA,334148.032199999,12681.1599000357,NA,329076.861900045,455485.894800047,454936.00700004,445796.825500031,325239.469600026,370350.520200038,288693.362799997,13422.6291000377,63882.762800029,91678.7353000254,129762.063100003,171312.974500004,173677.740400017,370350.630900008,456537.939800008,373577.606300008,301721.719100024,454624.956300016,308550.55460002,NA,328620.082400041,451042.23880003,324861.334900022,NA,NA,NA,NA,NA,370343.35510002,231961.212299997,288686.380800034,445796.749900037,325239.396599995,370242.430500046,370187.046100036,454921.155000047,12681.3220000477,455786.951799993,12681.3725000247,455478.91190002,231960.328800022,334143.724300025,334108.965900028,13404.8489000415,NA,NA,179693.458200025,40,113673.303700052,48,0,25
81.6326530612245,96,2337.55477551105,"a","accuracy","ka2000mo","0","b","a","0","0","0",78,3,700,"Tue Mar 21 14:10:22 2023",3,"sehr schwer","accuracy","Experiment.osexp","Bild_s1_b_2.png",1080,"mo",2000,"ka","blaue","C:/Users/steff/Documents/Universität/Master Psychologie/SS 2022/Masterarbeit/Experiment/subject-4.csv",1,0,0,"l",100,100,"l","l",866.880299989134,866.880299989134,4,301721.696600027,457717.889200023,370242.493700003,231961.394999991,334075.413500017,458585.879400023,457409.884000022,44714.6571000339,NA,334148.032199999,12681.1599000357,NA,329076.861900045,457417.210600048,456864.33120002,445796.825500031,325239.469600026,370350.520200038,288693.362799997,13422.6291000377,63882.762800029,91678.7353000254,129762.063100003,171312.974500004,173677.740400017,370350.630900008,458585.951200046,373577.606300008,301721.719100024,454624.956300016,308550.55460002,NA,328620.082400041,456563.643400033,324861.334900022,NA,NA,NA,NA,NA,370343.35510002,231961.212299997,288686.380800034,445796.749900037,325239.396599995,370242.430500046,370187.046100036,456859.002400015,12681.3220000477,457717.975600041,12681.3725000247,457409.806500014,231960.328800022,334143.724300025,334108.965900028,13404.8489000415,NA,NA,179693.458200025,40,114540.184000041,49,0,25
82,96,2306.63696400123,"a","accuracy","ka2000mo","1","b","a","1","0","0",79,3,700,"Tue Mar 21 14:10:22 2023",3,"sehr schwer","accuracy","Experiment.osexp","Bild_s1_b_12.png",1080,"mo",2000,"ka","blaue","C:/Users/steff/Documents/Universität/Master Psychologie/SS 2022/Masterarbeit/Experiment/subject-4.csv",0,0,0,"l",105,105,"a","a",791.664200020023,791.664200020023,4,301721.696600027,459760.998300044,370242.493700003,231961.394999991,334075.413500017,460553.714500042,459453.249300015,44714.6571000339,NA,334148.032199999,12681.1599000357,NA,329076.861900045,459460.468400037,458909.397700045,445796.825500031,325239.469600026,370350.520200038,288693.362799997,13422.6291000377,63882.762800029,91678.7353000254,129762.063100003,171312.974500004,173677.740400017,370350.630900008,460553.783900046,373577.606300008,301721.719100024,458608.608600043,308550.55460002,NA,328620.082400041,456563.643400033,324861.334900022,NA,NA,NA,NA,NA,370343.35510002,231961.212299997,288686.380800034,445796.749900037,325239.396599995,370242.430500046,370187.046100036,458904.060900037,12681.3220000477,459761.197799991,12681.3725000247,459453.169500048,231960.328800022,334143.724300025,334108.965900028,13404.8489000415,NA,NA,179693.458200025,41,115331.848200061,50,0,25
100,96,28961.9419000228,"a","speed","ka2000mo","1","o","l","0","1","0",80,4,700,"Tue Mar 21 14:10:22 2023",3,"sehr schwer","accuracy","Experiment.osexp","Bild_s1_o_13.png",1080,"mo",2000,"ka","blaue","C:/Users/steff/Documents/Universität/Master Psychologie/SS 2022/Masterarbeit/Experiment/subject-4.csv",0,0,0,"l",110,5,"l","l",516.358299995773,516.358299995773,4,301721.696600027,524388.324700005,370242.493700003,231961.394999991,466020.339500043,524905.369700049,524079.352600034,44714.6571000339,NA,334148.032199999,12681.1599000357,461024.865600048,329076.861900045,524086.433699995,460883.200800046,523546.287100005,325239.469600026,466137.161899998,288693.362799997,13422.6291000377,63882.762800029,91678.7353000254,129762.063100003,171312.974500004,173677.740400017,466137.291499996,524905.445300043,523545.393800014,301721.719100024,458608.608600043,308550.55460002,NA,328620.082400041,460582.519799995,324861.334900022,NA,NA,NA,NA,NA,466130.788600014,231961.212299997,288686.380800034,523546.242300014,325239.396599995,370242.430500046,370187.046100036,460877.875800012,12681.3220000477,524388.411700027,12681.3725000247,524079.149199999,231960.328800022,334143.724300025,334108.965900028,13404.8489000415,NA,NA,179693.458200025,2,57923.8838000456,2,0,130
66.6666666666667,96,19433.6175666928,"a","speed","ka2000mo","0","o","l","0","0","0",81,4,700,"Tue Mar 21 14:10:22 2023",3,"sehr schwer","accuracy","Experiment.osexp","Bild_s1_o_4.png",1080,"mo",2000,"ka","blaue","C:/Users/steff/Documents/Universität/Master Psychologie/SS 2022/Masterarbeit/Experiment/subject-4.csv",0,1,0,"l",100,-5,"a","a",376.968900032807,376.968900032807,4,301721.696600027,526079.723400006,370242.493700003,231961.394999991,466020.339500043,526457.575700013,525771.676300035,44714.6571000339,NA,334148.032199999,12681.1599000357,461024.865600048,329076.861900045,525778.936200019,525233.467400016,523546.287100005,325239.469600026,466137.161899998,288693.362799997,13422.6291000377,63882.762800029,91678.7353000254,129762.063100003,171312.974500004,173677.740400017,466137.291499996,526457.672199991,523545.393800014,301721.719100024,458608.608600043,308550.55460002,NA,328620.082400041,460582.519799995,524932.94930004,NA,NA,NA,NA,NA,466130.788600014,231961.212299997,288686.380800034,523546.242300014,325239.396599995,370242.430500046,370187.046100036,525228.180800041,12681.3220000477,526079.806399997,12681.3725000247,525771.598300023,231960.328800022,334143.724300025,334108.965900028,13404.8489000415,NA,NA,179693.458200025,2,58300.8527000784,3,0,130
