"accuracy","anzahl_gruppen","avg_rt","blauetaste","block","code","correct","correct_colour","correct_response","correct1","correct2","correct3","count_bildstimulus_3_1","count_block","cutoff","datetime","difficulty","difficulty_f","erstebedingung","experiment_file","filename","height","id_geburtsort","id_jahr","id_vater","linketaste","logfile","loose1","loose2","loose3","orangenetaste","punkte1","punkteimblock","response","response_tasteresponse_3_1","response_time","response_time_tasteresponse_3_1","subject_nr","time_bildershuffle","time_bildstimulus_3_1","time_block","time_block_tut","time_blockwerte_zuruecksetzten","time_cutoff_werte_und_punkte_3_1","time_definecorrectcolour_3_1","time_eingabemaske_kuerzel_python","time_ende_experimentierungsphase","time_ende_tutorial_1","time_experiment","time_feedback_serie","time_feedback_tutorial","time_fixationcross_3_1","time_grauesbild_3_1","time_gruppe_block","time_gruppe_tutorial","time_instruktionen_block","time_instruktionen_tutorial_1","time_introduction_1","time_introduction_2_1","time_introduction_3_punkte","time_introduction_3_speed","time_introduction_4_accuracy","time_introduction_5_feedback","time_leertaste_fuer_naechsten_bildschirm","time_logger_3_1","time_loop_block","time_loop_block_tut","time_minifeedbacknegativ_acc","time_minifeedbacknegativ_speed_slow","time_minifeedbacknegativ_speed_slowandwrong","time_minifeedbacknegativ_speed_wrong","time_minifeedbackpositiv_acc","time_minifeedbackpositiv_speed","time_new_inline_script","time_pause_zwischen_serie_1","time_pause_zwischen_serie_2","time_reset_feedback","time_reset_feedback_1","time_sequenz_block","time_sequenz_block_tut","time_sequenz_block_tut_1","time_sequenz_gruppe","time_sequenz_gruppe_tut","time_sequenz_serie","time_serie","time_set_to_zero","time_start","time_tasteresponse_3_1","time_testloopprepareglitchtutorial","time_trial_3_1","time_tutorial","time_tutorial_ende","time_tutorial_wiederholungscheck","time_vorgeplaenkel","time_warnhinweis_3sek","time_warnhinweis_5sek","time_warnung_tutorial_1","total_correct","total_response_time","total_responses","tutorial","tutorialpunkte"
88.8888888888889,96,96093.5149666491,"l","accuracy","ju1996be","0","o","a","0","0","0",0,1,700,"Tue Mar 28 11:12:17 2023",3,"sehr schwer","accuracy","Experiment.osexp","Bild_s1_o_8.png",1080,"be",1996,"ju","orangene","C:/Users/steff/Documents/Universität/Master Psychologie/SS 2022/Masterarbeit/Experiment/subject-6.csv",1,0,0,"a",-10,-10,"l","l",2452.46800000314,2452.46800000314,6,NA,224568.600900006,NA,209535.53819994,NA,227021.985400002,224260.384000023,42750.2333000302,NA,NA,4608.63769997377,NA,NA,224267.705400009,NA,NA,223742.639799952,NA,209627.553400001,5406.27849998418,75168.4231000254,89715.0104999309,112278.363900026,134053.401599987,143602.447699988,209627.698299941,227022.085699951,NA,223741.61259993,NA,NA,NA,NA,NA,NA,NA,NA,NA,NA,NA,NA,209535.351000028,209620.727099944,NA,223742.595999967,NA,NA,NA,4608.74599998351,224568.757599918,4608.77019993495,224260.187199921,209534.480599919,NA,NA,5388.68069997989,NA,NA,154482.019999996,8,864841.634699842,9,1,0
90,96,86597.2808499937,"l","accuracy","ju1996be","1","o","a","1","0","0",1,1,700,"Tue Mar 28 11:12:17 2023",3,"sehr schwer","accuracy","Experiment.osexp","Bild_s1_o_9.png",1080,"be",1996,"ju","orangene","C:/Users/steff/Documents/Universität/Master Psychologie/SS 2022/Masterarbeit/Experiment/subject-6.csv",0,0,0,"a",-5,-5,"a","a",1131.17380009498,1131.17380009498,6,NA,228209.804599988,NA,209535.53819994,NA,229341.879199957,227901.893100003,42750.2333000302,NA,NA,4608.63769997377,NA,NA,227909.225099953,227354.621700011,NA,223742.639799952,NA,209627.553400001,5406.27849998418,75168.4231000254,89715.0104999309,112278.363900026,134053.401599987,143602.447699988,209627.698299941,229341.954799951,NA,223741.61259993,227054.092300008,NA,NA,NA,NA,NA,NA,NA,NA,NA,NA,NA,209535.351000028,209620.727099944,NA,223742.595999967,NA,NA,227349.075299921,4608.74599998351,228210.010799929,4608.77019993495,227901.815199992,209534.480599919,NA,NA,5388.68069997989,NA,NA,154482.019999996,9,865972.808499937,10,1,0
90.9090909090909,96,78818.226499991,"l","accuracy","ju1996be","1","o","a","1","0","0",2,1,700,"Tue Mar 28 11:12:17 2023",2,"eher schwer","accuracy","Experiment.osexp","Bild_s2_o_4.png",1080,"be",1996,"ju","orangene","C:/Users/steff/Documents/Universität/Master Psychologie/SS 2022/Masterarbeit/Experiment/subject-6.csv",0,0,0,"a",0,0,"a","a",1027.68299996387,1027.68299996387,6,NA,230553.42250003,NA,209535.53819994,NA,231582.008800004,230244.507199968,42750.2333000302,NA,NA,4608.63769997377,NA,NA,230251.882800017,229667.193799978,NA,229742.022900027,NA,209627.553400001,5406.27849998418,75168.4231000254,89715.0104999309,112278.363900026,134053.401599987,143602.447699988,209627.698299941,231582.083599991,NA,223741.61259993,227054.092300008,NA,NA,NA,229366.26359995,NA,NA,NA,NA,NA,NA,NA,209535.351000028,209620.727099944,NA,229741.947999923,NA,NA,229661.342500011,4608.74599998351,230553.511900012,4608.77019993495,230244.430699968,209534.480599919,NA,NA,5388.68069997989,NA,NA,154482.019999996,10,867000.491499901,11,1,0
91.6666666666667,96,72306.8003499939,"l","accuracy","ju1996be","1","o","a","1","0","0",3,1,700,"Tue Mar 28 11:12:17 2023",2,"eher schwer","accuracy","Experiment.osexp","Bild_s2_o_9.png",1080,"be",1996,"ju","orangene","C:/Users/steff/Documents/Universität/Master Psychologie/SS 2022/Masterarbeit/Experiment/subject-6.csv",0,0,0,"a",5,5,"a","a",681.112700025551,681.112700025551,6,NA,232755.908699939,NA,209535.53819994,NA,233437.792800018,232447.37379998,42750.2333000302,NA,NA,4608.63769997377,NA,NA,232454.643899924,231907.30890003,NA,229742.022900027,NA,209627.553400001,5406.27849998418,75168.4231000254,89715.0104999309,112278.363900026,134053.401599987,143602.447699988,209627.698299941,233437.867800007,NA,223741.61259993,227054.092300008,NA,NA,NA,231606.461099931,NA,NA,NA,NA,NA,NA,NA,209535.351000028,209620.727099944,NA,229741.947999923,NA,NA,231901.693699998,4608.74599998351,232756.079799961,4608.77019993495,232447.295999969,209534.480599919,NA,NA,5388.68069997989,NA,NA,154482.019999996,11,867681.604199926,12,1,0
92.3076923076923,96,66790.0163769238,"l","accuracy","ju1996be","1","o","a","1","0","0",4,1,700,"Tue Mar 28 11:12:17 2023",1,"eher leicht","accuracy","Experiment.osexp","Bild_s3_o_15.png",1080,"be",1996,"ju","orangene","C:/Users/steff/Documents/Universität/Master Psychologie/SS 2022/Masterarbeit/Experiment/subject-6.csv",0,0,0,"a",10,10,"a","a",588.608700083569,588.608700083569,6,NA,234656.407100032,NA,209535.53819994,NA,235245.736800018,234348.462400027,42750.2333000302,NA,NA,4608.63769997377,NA,NA,234355.599000002,233768.762200023,NA,233843.42099994,NA,209627.553400001,5406.27849998418,75168.4231000254,89715.0104999309,112278.363900026,134053.401599987,143602.447699988,209627.698299941,235245.823199977,NA,223741.61259993,227054.092300008,NA,NA,NA,233467.8939,NA,NA,NA,NA,NA,NA,NA,209535.351000028,209620.727099944,NA,233843.342299922,NA,NA,233763.152300031,4608.74599998351,234656.57979995,4608.77019993495,234348.377399961,209534.480599919,NA,NA,5388.68069997989,NA,NA,154482.019999996,12,868270.21290001,13,1,0
92.8571428571429,96,62079.1356571385,"l","accuracy","ju1996be","1","b","l","1","0","0",5,1,700,"Tue Mar 28 11:12:17 2023",1,"eher leicht","accuracy","Experiment.osexp","Bild_s3_b_15.png",1080,"be",1996,"ju","orangene","C:/Users/steff/Documents/Universität/Master Psychologie/SS 2022/Masterarbeit/Experiment/subject-6.csv",0,0,0,"a",15,15,"l","l",837.686299928464,837.686299928464,6,NA,236423.349499935,NA,209535.53819994,NA,237261.924599996,236114.717799937,42750.2333000302,NA,NA,4608.63769997377,NA,NA,236121.949799941,235567.662999965,NA,233843.42099994,NA,209627.553400001,5406.27849998418,75168.4231000254,89715.0104999309,112278.363900026,134053.401599987,143602.447699988,209627.698299941,237261.999199982,NA,223741.61259993,227054.092300008,NA,NA,NA,235267.229599995,NA,NA,NA,NA,NA,NA,NA,209535.351000028,209620.727099944,NA,233843.342299922,NA,NA,235561.989499955,4608.74599998351,236423.482200014,4608.77019993495,236114.640499931,209534.480599919,NA,NA,5388.68069997989,NA,NA,154482.019999996,13,869107.899199938,14,1,0
93.3333333333333,96,58098.9925999971,"l","accuracy","ju1996be","1","b","l","1","0","0",6,1,700,"Tue Mar 28 11:12:17 2023",0,"sehr leicht","accuracy","Experiment.osexp","Bild_s4_b_8.png",1080,"be",1996,"ju","orangene","C:/Users/steff/Documents/Universität/Master Psychologie/SS 2022/Masterarbeit/Experiment/subject-6.csv",0,0,0,"a",20,20,"l","l",2376.98980001733,2376.98980001733,6,NA,238499.999799998,NA,209535.53819994,NA,240877.89559993,238191.894899937,42750.2333000302,NA,NA,4608.63769997377,NA,NA,238199.413900031,237611.220499966,NA,237686.014299979,NA,209627.553400001,5406.27849998418,75168.4231000254,89715.0104999309,112278.363900026,134053.401599987,143602.447699988,209627.698299941,240877.97000003,NA,223741.61259993,227054.092300008,NA,NA,NA,237310.10709994,NA,NA,NA,NA,NA,NA,NA,209535.351000028,209620.727099944,NA,237685.93919999,NA,NA,237605.554800015,4608.74599998351,238500.204299926,4608.77019993495,238191.801599925,209534.480599919,NA,NA,5388.68069997989,NA,NA,154482.019999996,14,871484.888999956,15,1,0
93.75,96,54517.5405499976,"l","accuracy","ju1996be","1","o","a","1","0","0",7,1,700,"Tue Mar 28 11:12:17 2023",0,"sehr leicht","accuracy","Experiment.osexp","Bild_s4_o_25.png",1080,"be",1996,"ju","orangene","C:/Users/steff/Documents/Universität/Master Psychologie/SS 2022/Masterarbeit/Experiment/subject-6.csv",0,0,0,"a",25,25,"a","a",795.759800006635,795.759800006635,6,NA,242065.253900015,NA,209535.53819994,NA,242861.775800004,241756.749799941,42750.2333000302,NA,NA,4608.63769997377,NA,NA,241764.166999958,241214.609900024,NA,237686.014299979,NA,209627.553400001,5406.27849998418,75168.4231000254,89715.0104999309,112278.363900026,134053.401599987,143602.447699988,209627.698299941,242861.861299956,NA,223741.61259993,227054.092300008,NA,NA,NA,240913.49029995,NA,NA,NA,NA,NA,NA,NA,209535.351000028,209620.727099944,NA,237685.93919999,NA,NA,241208.933099988,4608.74599998351,242065.423600026,4608.77019993495,241756.669000024,209534.480599919,NA,NA,5388.68069997989,NA,NA,154482.019999996,15,872280.648799962,16,1,0
94.1176470588235,96,51372.9505588177,"l","accuracy","ju1996be","1","b","l","1","0","0",8,1,700,"Tue Mar 28 11:12:17 2023",0,"sehr leicht","accuracy","Experiment.osexp","Bild_s4_b_14.png",1080,"be",1996,"ju","orangene","C:/Users/steff/Documents/Universität/Master Psychologie/SS 2022/Masterarbeit/Experiment/subject-6.csv",0,0,0,"a",30,30,"l","l",1059.51069993898,1059.51069993898,6,NA,244073.56629998,NA,209535.53819994,NA,245133.88660003,243765.99450002,42750.2333000302,NA,NA,4608.63769997377,NA,NA,243772.779699997,243183.011299931,NA,243258.755999967,NA,209627.553400001,5406.27849998418,75168.4231000254,89715.0104999309,112278.363900026,134053.401599987,143602.447699988,209627.698299941,245133.958999999,NA,223741.61259993,227054.092300008,NA,NA,NA,242882.525700028,NA,NA,NA,NA,NA,NA,NA,209535.351000028,209620.727099944,NA,243258.680499974,NA,NA,243177.569099935,4608.74599998351,244073.674299987,4608.77019993495,243765.917000012,209534.480599919,NA,NA,5388.68069997989,NA,NA,154482.019999996,16,873340.159499901,17,1,0
94.4444444444444,96,48564.646972214,"l","accuracy","ju1996be","1","o","a","1","0","0",9,1,700,"Tue Mar 28 11:12:17 2023",0,"sehr leicht","accuracy","Experiment.osexp","Bild_s4_o_23.png",1080,"be",1996,"ju","orangene","C:/Users/steff/Documents/Universität/Master Psychologie/SS 2022/Masterarbeit/Experiment/subject-6.csv",0,0,0,"a",35,35,"a","a",823.485999950208,823.485999950208,6,NA,246309.518199996,NA,209535.53819994,NA,247133.706299937,246001.452600001,42750.2333000302,NA,NA,4608.63769997377,NA,NA,246008.705199929,245458.403000026,NA,243258.755999967,NA,209627.553400001,5406.27849998418,75168.4231000254,89715.0104999309,112278.363900026,134053.401599987,143602.447699988,209627.698299941,247133.779700031,NA,223741.61259993,227054.092300008,NA,NA,NA,245157.583000022,NA,NA,NA,NA,NA,NA,NA,209535.351000028,209620.727099944,NA,243258.680499974,NA,NA,245452.945100027,4608.74599998351,246309.702800005,4608.77019993495,246001.373899984,209534.480599919,NA,NA,5388.68069997989,NA,NA,154482.019999996,17,874163.645499852,18,1,0
94.7368421052632,96,46050.4534052575,"l","accuracy","ju1996be","1","b","l","1","0","0",10,1,700,"Tue Mar 28 11:12:17 2023",1,"eher leicht","accuracy","Experiment.osexp","Bild_s3_b_16.png",1080,"be",1996,"ju","orangene","C:/Users/steff/Documents/Universität/Master Psychologie/SS 2022/Masterarbeit/Experiment/subject-6.csv",0,0,0,"a",40,40,"l","l",794.969200040214,794.969200040214,6,NA,248338.112300029,NA,209535.53819994,NA,249133.783699945,248030.041099992,42750.2333000302,NA,NA,4608.63769997377,NA,NA,248037.294099922,247449.59939993,NA,247524.556900025,NA,209627.553400001,5406.27849998418,75168.4231000254,89715.0104999309,112278.363900026,134053.401599987,143602.447699988,209627.698299941,249133.869700017,NA,223741.61259993,227054.092300008,NA,NA,NA,247148.986299988,NA,NA,NA,NA,NA,NA,NA,209535.351000028,209620.727099944,NA,247524.48189992,NA,NA,247444.107600022,4608.74599998351,248338.213099982,4608.77019993495,248029.958799947,209534.480599919,NA,NA,5388.68069997989,NA,NA,154482.019999996,18,874958.614699892,19,1,0
95,96,43793.6512699991,"l","accuracy","ju1996be","1","o","a","1","0","0",11,1,700,"Tue Mar 28 11:12:17 2023",1,"eher leicht","accuracy","Experiment.osexp","Bild_s3_o_13.png",1080,"be",1996,"ju","orangene","C:/Users/steff/Documents/Universität/Master Psychologie/SS 2022/Masterarbeit/Experiment/subject-6.csv",0,0,0,"a",45,45,"a","a",914.41070009023,914.41070009023,6,NA,250298.658999964,NA,209535.53819994,NA,251213.805699954,249990.773499943,42750.2333000302,NA,NA,4608.63769997377,NA,NA,249997.936100001,249449.748700019,NA,247524.556900025,NA,209627.553400001,5406.27849998418,75168.4231000254,89715.0104999309,112278.363900026,134053.401599987,143602.447699988,209627.698299941,251213.878399925,NA,223741.61259993,227054.092300008,NA,NA,NA,249149.185699993,NA,NA,NA,NA,NA,NA,NA,209535.351000028,209620.727099944,NA,247524.48189992,NA,NA,249444.231699919,4608.74599998351,250298.760399921,4608.77019993495,249990.64069998,209534.480599919,NA,NA,5388.68069997989,NA,NA,154482.019999996,19,875873.025399982,20,1,0
95.2380952380952,96,41786.6327476167,"l","accuracy","ju1996be","1","o","a","1","0","0",12,1,700,"Tue Mar 28 11:12:17 2023",2,"eher schwer","accuracy","Experiment.osexp","Bild_s2_o_17.png",1080,"be",1996,"ju","orangene","C:/Users/steff/Documents/Universität/Master Psychologie/SS 2022/Masterarbeit/Experiment/subject-6.csv",0,0,0,"a",50,50,"a","a",1646.26229996793,1646.26229996793,6,NA,252414.709000033,NA,209535.53819994,NA,254061.810499988,252106.778000016,42750.2333000302,NA,NA,4608.63769997377,NA,NA,252113.694799948,251529.63939996,NA,251603.680799948,NA,209627.553400001,5406.27849998418,75168.4231000254,89715.0104999309,112278.363900026,134053.401599987,143602.447699988,209627.698299941,254061.887899996,NA,223741.61259993,227054.092300008,NA,NA,NA,251229.091499932,NA,NA,NA,NA,NA,NA,NA,209535.351000028,209620.727099944,NA,251603.607399971,NA,NA,251524.190200027,4608.74599998351,252414.913899964,4608.77019993495,252106.697899988,209534.480599919,NA,NA,5388.68069997989,NA,NA,154482.019999996,20,877519.28769995,21,1,0
90.9090909090909,96,39950.3639999999,"l","accuracy","ju1996be","0","b","l","0","0","0",13,1,700,"Tue Mar 28 11:12:17 2023",2,"eher schwer","accuracy","Experiment.osexp","Bild_s2_b_19.png",1080,"be",1996,"ju","orangene","C:/Users/steff/Documents/Universität/Master Psychologie/SS 2022/Masterarbeit/Experiment/subject-6.csv",1,0,0,"a",40,40,"a","a",1388.72030004859,1388.72030004859,6,NA,255264.288199949,NA,209535.53819994,NA,256653.756399988,254956.623399979,42750.2333000302,NA,NA,4608.63769997377,NA,NA,254963.435099926,254415.17069994,NA,251603.680799948,NA,209627.553400001,5406.27849998418,75168.4231000254,89715.0104999309,112278.363900026,134053.401599987,143602.447699988,209627.698299941,256653.843299951,NA,223741.61259993,227054.092300008,NA,NA,NA,254114.246599958,NA,NA,NA,NA,NA,NA,NA,209535.351000028,209620.727099944,NA,251603.607399971,NA,NA,254409.636299941,4608.74599998351,255264.45909997,4608.77019993495,254956.542199943,209534.480599919,NA,NA,5388.68069997989,NA,NA,154482.019999996,20,878908.007999999,22,1,0
91.304347826087,96,38322.1000086962,"l","accuracy","ju1996be","1","o","a","1","0","0",14,1,700,"Tue Mar 28 11:12:17 2023",3,"sehr schwer","accuracy","Experiment.osexp","Bild_s1_o_6.png",1080,"be",1996,"ju","orangene","C:/Users/steff/Documents/Universität/Master Psychologie/SS 2022/Masterarbeit/Experiment/subject-6.csv",0,0,0,"a",45,45,"a","a",2500.29220001306,2500.29220001306,6,NA,257880.760499975,NA,209535.53819994,NA,260381.926000002,257572.737299954,42750.2333000302,NA,NA,4608.63769997377,NA,NA,257579.592499998,256981.347399997,NA,257056.238599936,NA,209627.553400001,5406.27849998418,75168.4231000254,89715.0104999309,112278.363900026,134053.401599987,143602.447699988,209627.698299941,260382.000599988,NA,223741.61259993,256680.759800016,NA,NA,NA,254114.246599958,NA,NA,NA,NA,NA,NA,NA,209535.351000028,209620.727099944,NA,257056.162499939,NA,NA,256975.873299991,4608.74599998351,257880.868899985,4608.77019993495,257572.658099933,209534.480599919,NA,NA,5388.68069997989,NA,NA,154482.019999996,21,881408.300200012,23,1,0
91.6666666666667,96,36779.9548458327,"l","accuracy","ju1996be","1","o","a","1","0","0",15,1,700,"Tue Mar 28 11:12:17 2023",3,"sehr schwer","accuracy","Experiment.osexp","Bild_s1_o_19.png",1080,"be",1996,"ju","orangene","C:/Users/steff/Documents/Universität/Master Psychologie/SS 2022/Masterarbeit/Experiment/subject-6.csv",0,0,0,"a",50,50,"a","a",1310.61609997414,1310.61609997414,6,NA,261550.41139992,NA,209535.53819994,NA,262861.813599942,261241.463499959,42750.2333000302,NA,NA,4608.63769997377,NA,NA,261248.732600012,260697.520499933,NA,257056.238599936,NA,209627.553400001,5406.27849998418,75168.4231000254,89715.0104999309,112278.363900026,134053.401599987,143602.447699988,209627.698299941,262861.895599985,NA,223741.61259993,256680.759800016,NA,NA,NA,260396.691299975,NA,NA,NA,NA,NA,NA,NA,209535.351000028,209620.727099944,NA,257056.162499939,NA,NA,260692.029700032,4608.74599998351,261550.514400005,4608.77019993495,261241.380800027,209534.480599919,NA,NA,5388.68069997989,NA,NA,154482.019999996,22,882718.916299986,24,1,0
50,96,5154.13719997741,"l","speed","ju1996be","0","b","l","0","0","0",16,2,700,"Tue Mar 28 11:12:17 2023",3,"sehr schwer","accuracy","Experiment.osexp","Bild_s1_b_9.png",1080,"be",1996,"ju","orangene","C:/Users/steff/Documents/Universität/Master Psychologie/SS 2022/Masterarbeit/Experiment/subject-6.csv",0,0,1,"a",40,-10,"a","a",802.498899982311,802.498899982311,6,NA,278778.530700016,NA,209535.53819994,268330.832000007,279581.845499924,278470.319699962,42750.2333000302,NA,NA,4608.63769997377,NA,263335.216899985,278477.615599986,263186.568000005,NA,277966.617499944,NA,268459.203799954,5406.27849998418,75168.4231000254,89715.0104999309,112278.363900026,134053.401599987,143602.447699988,268459.348200005,279581.943499972,NA,277965.608799946,256680.759800016,NA,NA,NA,262885.577799985,NA,NA,NA,NA,NA,NA,NA,209535.351000028,268452.041900018,NA,277966.572899953,NA,NA,263181.049700011,4608.74599998351,278778.621500009,4608.77019993495,278470.131199923,209534.480599919,NA,NA,5388.68069997989,NA,NA,154482.019999996,1,10308.2743999548,2,1,50
66.6666666666667,96,3658.71696663089,"l","speed","ju1996be","1","b","l","0","1","0",17,2,700,"Tue Mar 28 11:12:17 2023",3,"sehr schwer","accuracy","Experiment.osexp","Bild_s1_b_8.png",1080,"be",1996,"ju","orangene","C:/Users/steff/Documents/Universität/Master Psychologie/SS 2022/Masterarbeit/Experiment/subject-6.csv",0,0,0,"a",45,-5,"l","l",667.876499937847,667.876499937847,6,NA,280753.159899963,NA,209535.53819994,268330.832000007,281421.735599986,280445.321699954,42750.2333000302,NA,NA,4608.63769997377,NA,263335.216899985,280452.433199971,279897.830200032,NA,277966.617499944,NA,268459.203799954,5406.27849998418,75168.4231000254,89715.0104999309,112278.363900026,134053.401599987,143602.447699988,268459.348200005,281421.820099931,NA,277965.608799946,256680.759800016,NA,279596.962400014,NA,262885.577799985,NA,NA,NA,NA,NA,NA,NA,209535.351000028,268452.041900018,NA,277966.572899953,NA,NA,279892.356800032,4608.74599998351,280753.258800018,4608.77019993495,280445.245699957,209534.480599919,NA,NA,5388.68069997989,NA,NA,154482.019999996,2,10976.1508998927,3,1,50
50,96,2842.32737496495,"l","speed","ju1996be","0","b","l","0","0","0",18,2,700,"Tue Mar 28 11:12:17 2023",2,"eher schwer","accuracy","Experiment.osexp","Bild_s2_b_17.png",1080,"be",1996,"ju","orangene","C:/Users/steff/Documents/Universität/Master Psychologie/SS 2022/Masterarbeit/Experiment/subject-6.csv",0,1,0,"a",35,-15,"a","a",393.158599967137,393.158599967137,6,NA,282659.834699938,NA,209535.53819994,268330.832000007,283053.789600031,282351.899100002,42750.2333000302,NA,NA,4608.63769997377,NA,263335.216899985,282358.848299948,281753.599699936,NA,281827.046599938,NA,268459.203799954,5406.27849998418,75168.4231000254,89715.0104999309,112278.363900026,134053.401599987,143602.447699988,268459.348200005,283053.897399921,NA,277965.608799946,256680.759800016,NA,279596.962400014,NA,262885.577799985,281452.87509996,NA,NA,NA,NA,NA,NA,209535.351000028,268452.041900018,NA,281826.972799958,NA,NA,281748.188799946,4608.74599998351,282659.976699972,4608.77019993495,282351.819599979,209534.480599919,NA,NA,5388.68069997989,NA,NA,154482.019999996,2,11369.3094998598,4,1,50
40,96,2356.10799996648,"l","speed","ju1996be","0","o","a","0","0","0",19,2,700,"Tue Mar 28 11:12:17 2023",2,"eher schwer","accuracy","Experiment.osexp","Bild_s2_o_11.png",1080,"be",1996,"ju","orangene","C:/Users/steff/Documents/Universität/Master Psychologie/SS 2022/Masterarbeit/Experiment/subject-6.csv",0,1,0,"a",25,-25,"l","l",411.230499972589,411.230499972589,6,NA,284241.809000028,NA,209535.53819994,268330.832000007,284653.672099928,283933.614799986,42750.2333000302,NA,NA,4608.63769997377,NA,263335.216899985,283940.556199988,283382.568400004,NA,281827.046599938,NA,268459.203799954,5406.27849998418,75168.4231000254,89715.0104999309,112278.363900026,134053.401599987,143602.447699988,268459.348200005,284653.785399976,NA,277965.608799946,256680.759800016,NA,279596.962400014,283081.650699954,262885.577799985,281452.87509996,NA,NA,NA,NA,NA,NA,209535.351000028,268452.041900018,NA,281826.972799958,NA,NA,283376.984199975,4608.74599998351,284241.907799966,4608.77019993495,283933.537699981,209534.480599919,NA,NA,5388.68069997989,NA,NA,154482.019999996,2,11780.5399998324,5,1,50
50,96,2049.22989996461,"l","speed","ju1996be","1","o","a","0","1","0",20,2,700,"Tue Mar 28 11:12:17 2023",1,"eher leicht","accuracy","Experiment.osexp","Bild_s3_o_16.png",1080,"be",1996,"ju","orangene","C:/Users/steff/Documents/Universität/Master Psychologie/SS 2022/Masterarbeit/Experiment/subject-6.csv",0,0,0,"a",30,-20,"a","a",514.839399955235,514.839399955235,6,NA,285866.201799945,NA,209535.53819994,268330.832000007,286381.87069993,285558.23840003,42750.2333000302,NA,NA,4608.63769997377,NA,263335.216899985,285565.090399934,284972.645599977,NA,285048.852999927,NA,268459.203799954,5406.27849998418,75168.4231000254,89715.0104999309,112278.363900026,134053.401599987,143602.447699988,268459.348200005,286381.952599972,NA,277965.608799946,256680.759800016,NA,279596.962400014,284672.059100005,262885.577799985,281452.87509996,NA,NA,NA,NA,NA,NA,209535.351000028,268452.041900018,NA,285048.774100025,NA,NA,284967.186099966,4608.74599998351,285866.302700015,4608.77019993495,285558.160800021,209534.480599919,NA,NA,5388.68069997989,NA,NA,154482.019999996,3,12295.3793997876,6,1,50
57.1428571428571,96,1830.45324282388,"l","speed","ju1996be","1","b","l","0","1","0",21,2,700,"Tue Mar 28 11:12:17 2023",1,"eher leicht","accuracy","Experiment.osexp","Bild_s3_b_16.png",1080,"be",1996,"ju","orangene","C:/Users/steff/Documents/Universität/Master Psychologie/SS 2022/Masterarbeit/Experiment/subject-6.csv",0,0,0,"a",35,-15,"l","l",517.79329997953,517.79329997953,6,NA,287559.14779997,NA,209535.53819994,268330.832000007,288077.594399918,287251.101800008,42750.2333000302,NA,NA,4608.63769997377,NA,263335.216899985,287258.417999954,286706.050699926,NA,285048.852999927,NA,268459.203799954,5406.27849998418,75168.4231000254,89715.0104999309,112278.363900026,134053.401599987,143602.447699988,268459.348200005,288077.671899926,NA,277965.608799946,256680.759800016,NA,279596.962400014,284672.059100005,262885.577799985,286405.122700031,NA,NA,NA,NA,NA,NA,209535.351000028,268452.041900018,NA,285048.774100025,NA,NA,286700.593599933,4608.74599998351,287559.346999973,4608.77019993495,287251.019999967,209534.480599919,NA,NA,5388.68069997989,NA,NA,154482.019999996,4,12813.1726997672,7,1,50
50,96,1669.07513746992,"l","speed","ju1996be","0","b","l","0","0","0",22,2,700,"Tue Mar 28 11:12:17 2023",0,"sehr leicht","accuracy","Experiment.osexp","Bild_s4_b_25.png",1080,"be",1996,"ju","orangene","C:/Users/steff/Documents/Universität/Master Psychologie/SS 2022/Masterarbeit/Experiment/subject-6.csv",0,1,0,"a",25,-25,"a","a",539.428399992175,539.428399992175,6,NA,289297.636599978,NA,209535.53819994,268330.832000007,289837.828599964,288989.585199975,42750.2333000302,NA,NA,4608.63769997377,NA,263335.216899985,288996.454600012,288399.726599921,NA,288480.543199927,NA,268459.203799954,5406.27849998418,75168.4231000254,89715.0104999309,112278.363900026,134053.401599987,143602.447699988,268459.348200005,289837.933599949,NA,277965.608799946,256680.759800016,NA,279596.962400014,284672.059100005,262885.577799985,288098.595799995,NA,NA,NA,NA,NA,NA,209535.351000028,268452.041900018,NA,288480.463400017,NA,NA,288394.211899955,4608.74599998351,289297.739799949,4608.77019993495,288989.504799945,209534.480599919,NA,NA,5388.68069997989,NA,NA,154482.019999996,4,13352.6010997593,8,1,50
55.5555555555556,96,1541.69542219542,"l","speed","ju1996be","1","b","l","0","1","0",23,2,700,"Tue Mar 28 11:12:17 2023",0,"sehr leicht","accuracy","Experiment.osexp","Bild_s4_b_3.png",1080,"be",1996,"ju","orangene","C:/Users/steff/Documents/Universität/Master Psychologie/SS 2022/Masterarbeit/Experiment/subject-6.csv",0,0,0,"a",30,-20,"l","l",522.657699999399,522.657699999399,6,NA,291010.390199954,NA,209535.53819994,268330.832000007,291533.787199995,290702.313299989,42750.2333000302,NA,NA,4608.63769997377,NA,263335.216899985,290709.206999978,290157.20929997,NA,288480.543199927,NA,268459.203799954,5406.27849998418,75168.4231000254,89715.0104999309,112278.363900026,134053.401599987,143602.447699988,268459.348200005,291533.868000028,NA,277965.608799946,256680.759800016,NA,279596.962400014,289856.40499997,262885.577799985,288098.595799995,NA,NA,NA,NA,NA,NA,209535.351000028,268452.041900018,NA,288480.463400017,NA,NA,290151.748299948,4608.74599998351,291010.491600027,4608.77019993495,290702.234499971,209534.480599919,NA,NA,5388.68069997989,NA,NA,154482.019999996,5,13875.2587997587,9,1,50
60,96,1431.67331997538,"l","speed","ju1996be","1","b","l","0","1","0",24,2,700,"Tue Mar 28 11:12:17 2023",0,"sehr leicht","accuracy","Experiment.osexp","Bild_s4_b_17.png",1080,"be",1996,"ju","orangene","C:/Users/steff/Documents/Universität/Master Psychologie/SS 2022/Masterarbeit/Experiment/subject-6.csv",0,0,0,"a",35,-15,"l","l",441.474399995059,441.474399995059,6,NA,292755.478199921,NA,209535.53819994,268330.832000007,293197.756499983,292447.332600015,42750.2333000302,NA,NA,4608.63769997377,NA,263335.216899985,292454.621899989,291862.169599975,NA,291941.825199989,NA,268459.203799954,5406.27849998418,75168.4231000254,89715.0104999309,112278.363900026,134053.401599987,143602.447699988,268459.348200005,293197.834799998,NA,277965.608799946,256680.759800016,NA,279596.962400014,289856.40499997,262885.577799985,291561.118399957,NA,NA,NA,NA,NA,NA,209535.351000028,268452.041900018,NA,291941.746499971,NA,NA,291856.376799988,4608.74599998351,292755.659700022,4608.77019993495,292447.25279999,209534.480599919,NA,NA,5388.68069997989,NA,NA,154482.019999996,6,14316.7331997538,10,1,50
63.6363636363636,96,1350.46149997718,"l","speed","ju1996be","1","o","a","0","1","0",25,2,700,"Tue Mar 28 11:12:17 2023",0,"sehr leicht","accuracy","Experiment.osexp","Bild_s4_o_13.png",1080,"be",1996,"ju","orangene","C:/Users/steff/Documents/Universität/Master Psychologie/SS 2022/Masterarbeit/Experiment/subject-6.csv",0,0,0,"a",40,-10,"a","a",538.343299995176,538.343299995176,6,NA,294386.727800011,NA,209535.53819994,268330.832000007,294925.966599956,294078.086999943,42750.2333000302,NA,NA,4608.63769997377,NA,263335.216899985,294085.694100009,293528.797599953,NA,291941.825199989,NA,268459.203799954,5406.27849998418,75168.4231000254,89715.0104999309,112278.363900026,134053.401599987,143602.447699988,268459.348200005,294926.048299996,NA,277965.608799946,256680.759800016,NA,279596.962400014,289856.40499997,262885.577799985,293227.40209999,NA,NA,NA,NA,NA,NA,209535.351000028,268452.041900018,NA,291941.746499971,NA,NA,293523.174799979,4608.74599998351,294386.827799957,4608.77019993495,294078.010999947,209534.480599919,NA,NA,5388.68069997989,NA,NA,154482.019999996,7,14855.076499749,11,1,50
58.3333333333333,96,1294.17487497752,"l","speed","ju1996be","0","o","a","0","0","0",26,2,700,"Tue Mar 28 11:12:17 2023",1,"eher leicht","accuracy","Experiment.osexp","Bild_s3_o_15.png",1080,"be",1996,"ju","orangene","C:/Users/steff/Documents/Universität/Master Psychologie/SS 2022/Masterarbeit/Experiment/subject-6.csv",0,1,0,"a",30,-20,"l","l",675.021999981254,675.021999981254,6,NA,296138.019199949,NA,209535.53819994,268330.832000007,296813.710600021,295829.931900022,42750.2333000302,NA,NA,4608.63769997377,NA,263335.216899985,295837.240300025,295241.821500007,NA,295318.062699982,NA,268459.203799954,5406.27849998418,75168.4231000254,89715.0104999309,112278.363900026,134053.401599987,143602.447699988,268459.348200005,296813.811799977,NA,277965.608799946,256680.759800016,NA,279596.962400014,289856.40499997,262885.577799985,294940.83690003,NA,NA,NA,NA,NA,NA,209535.351000028,268452.041900018,NA,295317.985499976,NA,NA,295236.288300017,4608.74599998351,296138.119600015,4608.77019993495,295829.854900017,209534.480599919,NA,NA,5388.68069997989,NA,NA,154482.019999996,7,15530.0984997302,12,1,50
53.8461538461538,96,1235.25037690818,"l","speed","ju1996be","0","b","l","0","0","0",27,2,700,"Tue Mar 28 11:12:17 2023",1,"eher leicht","accuracy","Experiment.osexp","Bild_s3_b_9.png",1080,"be",1996,"ju","orangene","C:/Users/steff/Documents/Universität/Master Psychologie/SS 2022/Masterarbeit/Experiment/subject-6.csv",0,1,0,"a",20,-30,"a","a",528.156400076114,528.156400076114,6,NA,297996.877899976,NA,209535.53819994,268330.832000007,298525.71680001,297688.714599935,42750.2333000302,NA,NA,4608.63769997377,NA,263335.216899985,297695.937799988,297143.592000008,NA,295318.062699982,NA,268459.203799954,5406.27849998418,75168.4231000254,89715.0104999309,112278.363900026,134053.401599987,143602.447699988,268459.348200005,298525.828699931,NA,277965.608799946,256680.759800016,NA,279596.962400014,296842.889299965,262885.577799985,294940.83690003,NA,NA,NA,NA,NA,NA,209535.351000028,268452.041900018,NA,295317.985499976,NA,NA,297138.139699935,4608.74599998351,297996.977399918,4608.77019993495,297688.634100021,209534.480599919,NA,NA,5388.68069997989,NA,NA,154482.019999996,7,16058.2548998063,13,1,50
50,96,1220.89533570189,"l","speed","ju1996be","0","o","a","0","0","0",28,2,700,"Tue Mar 28 11:12:17 2023",2,"eher schwer","accuracy","Experiment.osexp","Bild_s2_o_20.png",1080,"be",1996,"ju","orangene","C:/Users/steff/Documents/Universität/Master Psychologie/SS 2022/Masterarbeit/Experiment/subject-6.csv",0,0,1,"a",10,-40,"l","l",1034.27980002016,1034.27980002016,6,NA,299730.760499951,NA,209535.53819994,268330.832000007,300766.980699962,299422.349900007,42750.2333000302,NA,NA,4608.63769997377,NA,263335.216899985,299430.026400019,298843.1996,NA,298918.541999999,NA,268459.203799954,5406.27849998418,75168.4231000254,89715.0104999309,112278.363900026,134053.401599987,143602.447699988,268459.348200005,300767.080200021,NA,277965.608799946,256680.759800016,NA,279596.962400014,298542.488900013,262885.577799985,294940.83690003,NA,NA,NA,NA,NA,NA,209535.351000028,268452.041900018,NA,298918.43640001,NA,NA,298837.734499946,4608.74599998351,299730.864099925,4608.77019993495,299422.270699986,209534.480599919,NA,NA,5388.68069997989,NA,NA,154482.019999996,7,17092.5346998265,14,1,50
46.6666666666667,96,1267.81927998333,"l","speed","ju1996be","0","b","l","0","0","0",29,2,700,"Tue Mar 28 11:12:17 2023",2,"eher schwer","accuracy","Experiment.osexp","Bild_s2_b_6.png",1080,"be",1996,"ju","orangene","C:/Users/steff/Documents/Universität/Master Psychologie/SS 2022/Masterarbeit/Experiment/subject-6.csv",0,0,1,"a",0,-50,"a","a",1924.75449992344,1924.75449992344,6,NA,301944.143099943,NA,209535.53819994,268330.832000007,303869.761199923,301636.007199995,42750.2333000302,NA,NA,4608.63769997377,NA,263335.216899985,301643.282699981,301082.453600015,NA,298918.541999999,NA,268459.203799954,5406.27849998418,75168.4231000254,89715.0104999309,112278.363900026,134053.401599987,143602.447699988,268459.348200005,303869.861799991,NA,277965.608799946,256680.759800016,NA,300781.625199947,298542.488900013,262885.577799985,294940.83690003,NA,NA,NA,NA,NA,NA,209535.351000028,268452.041900018,NA,298918.43640001,NA,NA,301076.989999972,4608.74599998351,301944.352800027,4608.77019993495,301635.930899996,209534.480599919,NA,NA,5388.68069997989,NA,NA,154482.019999996,7,19017.2891997499,15,1,50
43.75,96,1236.56075623148,"l","speed","ju1996be","0","b","l","0","0","0",30,2,700,"Tue Mar 28 11:12:17 2023",3,"sehr schwer","accuracy","Experiment.osexp","Bild_s1_b_6.png",1080,"be",1996,"ju","orangene","C:/Users/steff/Documents/Universität/Master Psychologie/SS 2022/Masterarbeit/Experiment/subject-6.csv",0,0,1,"a",-10,-60,"a","a",767.682899953797,767.682899953797,6,NA,305085.341400001,NA,209535.53819994,268330.832000007,305853.705200017,304777.131399955,42750.2333000302,NA,NA,4608.63769997377,NA,263335.216899985,304784.053199925,304198.033799999,NA,304272.623399971,NA,268459.203799954,5406.27849998418,75168.4231000254,89715.0104999309,112278.363900026,134053.401599987,143602.447699988,268459.348200005,305853.817799943,NA,277965.608799946,256680.759800016,NA,303897.423799965,298542.488900013,262885.577799985,294940.83690003,NA,NA,NA,NA,NA,NA,209535.351000028,268452.041900018,NA,304272.549199988,NA,NA,304192.383699934,4608.74599998351,305085.446399986,4608.77019993495,304777.054199949,209534.480599919,NA,NA,5388.68069997989,NA,NA,154482.019999996,7,19784.9720997037,16,1,50
41.1764705882353,96,1205.887905863,"l","speed","ju1996be","0","o","a","0","0","0",31,2,700,"Tue Mar 28 11:12:17 2023",3,"sehr schwer","accuracy","Experiment.osexp","Bild_s1_o_7.png",1080,"be",1996,"ju","orangene","C:/Users/steff/Documents/Universität/Master Psychologie/SS 2022/Masterarbeit/Experiment/subject-6.csv",0,0,1,"a",-20,-70,"l","l",715.122299967334,715.122299967334,6,NA,307025.904099923,NA,209535.53819994,268330.832000007,307741.80129997,306717.797299963,42750.2333000302,NA,NA,4608.63769997377,NA,263335.216899985,306725.090599968,306169.524300029,NA,304272.623399971,NA,268459.203799954,5406.27849998418,75168.4231000254,89715.0104999309,112278.363900026,134053.401599987,143602.447699988,268459.348200005,307741.902499925,NA,277965.608799946,256680.759800016,NA,305868.115799967,298542.488900013,262885.577799985,294940.83690003,NA,NA,NA,NA,NA,NA,209535.351000028,268452.041900018,NA,304272.549199988,NA,NA,306164.055499947,4608.74599998351,307026.004499989,4608.77019993495,306717.717399937,209534.480599919,NA,NA,5388.68069997989,NA,NA,154482.019999996,7,20500.0943996711,17,1,50
100,96,7657.594349992,"l","accuracy","ju1996be","1","o","a","1","0","0",32,3,700,"Tue Mar 28 11:12:17 2023",3,"sehr schwer","accuracy","Experiment.osexp","Bild_s1_o_24.png",1080,"be",1996,"ju","orangene","C:/Users/steff/Documents/Universität/Master Psychologie/SS 2022/Masterarbeit/Experiment/subject-6.csv",0,0,0,"a",-15,5,"a","a",677.905899938196,677.905899938196,6,NA,328839.037299971,NA,313285.684300005,313214.7597,329517.556599923,328530.358499964,42750.2333000302,NA,NA,4608.63769997377,NA,308219.502300024,328537.772099953,308071.838999982,NA,328015.318999998,NA,313375.711099943,5406.27849998418,75168.4231000254,89715.0104999309,112278.363900026,134053.401599987,143602.447699988,313375.84569992,329517.627199995,NA,328014.150199946,256680.759800016,NA,307771.163999918,298542.488900013,262885.577799985,294940.83690003,NA,NA,NA,NA,NA,NA,313285.611500032,313368.550100015,NA,328015.269299969,NA,NA,308066.373199923,4608.74599998351,328839.209600003,4608.77019993495,328530.163099989,209534.480599919,NA,313248.670300003,5388.68069997989,NA,NA,154482.019999996,2,15315.188699984,2,1,-20
100,96,5289.28449998299,"l","accuracy","ju1996be","1","o","a","1","0","0",33,3,700,"Tue Mar 28 11:12:17 2023",3,"sehr schwer","accuracy","Experiment.osexp","Bild_s1_o_23.png",1080,"be",1996,"ju","orangene","C:/Users/steff/Documents/Universität/Master Psychologie/SS 2022/Masterarbeit/Experiment/subject-6.csv",0,0,0,"a",-10,10,"a","a",552.664799964987,552.664799964987,6,NA,330708.339400007,NA,313285.684300005,313214.7597,331261.675199959,330400.44509992,42750.2333000302,NA,NA,4608.63769997377,NA,308219.502300024,330407.644900028,329848.114899942,NA,328015.318999998,NA,313375.711099943,5406.27849998418,75168.4231000254,89715.0104999309,112278.363900026,134053.401599987,143602.447699988,313375.84569992,331261.763299932,NA,328014.150199946,256680.759800016,NA,307771.163999918,298542.488900013,329547.195399995,294940.83690003,NA,NA,NA,NA,NA,NA,313285.611500032,313368.550100015,NA,328015.269299969,NA,NA,329842.478999984,4608.74599998351,330708.441699971,4608.77019993495,330400.366400019,209534.480599919,NA,313248.670300003,5388.68069997989,NA,NA,154482.019999996,3,15867.853499949,3,1,-20
100,96,4087.97475000028,"l","accuracy","ju1996be","1","o","a","1","0","0",34,3,700,"Tue Mar 28 11:12:17 2023",2,"eher schwer","accuracy","Experiment.osexp","Bild_s2_o_7.png",1080,"be",1996,"ju","orangene","C:/Users/steff/Documents/Universität/Master Psychologie/SS 2022/Masterarbeit/Experiment/subject-6.csv",0,0,0,"a",-5,15,"a","a",484.045500052162,484.045500052162,6,NA,332472.953999997,NA,313285.684300005,313214.7597,332957.63910003,332164.96850003,42750.2333000302,NA,NA,4608.63769997377,NA,308219.502300024,332171.938500018,331583.592899959,NA,331658.790100017,NA,313375.711099943,5406.27849998418,75168.4231000254,89715.0104999309,112278.363900026,134053.401599987,143602.447699988,313375.84569992,332957.72559999,NA,328014.150199946,256680.759800016,NA,307771.163999918,298542.488900013,331282.972799963,294940.83690003,NA,NA,NA,NA,NA,NA,313285.611500032,313368.550100015,NA,331658.715300029,NA,NA,331578.123799991,4608.74599998351,332473.056499963,4608.77019993495,332164.888900006,209534.480599919,NA,313248.670300003,5388.68069997989,NA,NA,154482.019999996,4,16351.8990000011,4,1,-20
80,96,3376.52555999812,"l","accuracy","ju1996be","0","b","l","0","0","0",35,3,700,"Tue Mar 28 11:12:17 2023",2,"eher schwer","accuracy","Experiment.osexp","Bild_s2_b_19.png",1080,"be",1996,"ju","orangene","C:/Users/steff/Documents/Universität/Master Psychologie/SS 2022/Masterarbeit/Experiment/subject-6.csv",1,0,0,"a",-15,5,"a","a",530.728799989447,530.728799989447,6,NA,334186.279900023,NA,313285.684300005,313214.7597,334717.913500033,333878.308299929,42750.2333000302,NA,NA,4608.63769997377,NA,308219.502300024,333885.478699929,333278.922999976,NA,331658.790100017,NA,313375.711099943,5406.27849998418,75168.4231000254,89715.0104999309,112278.363900026,134053.401599987,143602.447699988,313375.84569992,334717.995699961,NA,328014.150199946,256680.759800016,NA,307771.163999918,298542.488900013,332978.426499991,294940.83690003,NA,NA,NA,NA,NA,NA,313285.611500032,313368.550100015,NA,331658.715300029,NA,NA,333273.612399935,4608.74599998351,334186.38660002,4608.77019993495,333878.219799954,209534.480599919,NA,313248.670300003,5388.68069997989,NA,NA,154482.019999996,4,16882.6277999906,5,1,-20
83.3333333333333,96,2943.40044999262,"l","accuracy","ju1996be","1","b","l","1","0","0",36,3,700,"Tue Mar 28 11:12:17 2023",1,"eher leicht","accuracy","Experiment.osexp","Bild_s3_b_15.png",1080,"be",1996,"ju","orangene","C:/Users/steff/Documents/Universität/Master Psychologie/SS 2022/Masterarbeit/Experiment/subject-6.csv",0,0,0,"a",-10,10,"l","l",777.774899965152,777.774899965152,6,NA,336035.194700002,NA,313285.684300005,313214.7597,336813.909900025,335726.844899938,42750.2333000302,NA,NA,4608.63769997377,NA,308219.502300024,335733.969699941,335064.774699975,NA,335139.073399943,NA,313375.711099943,5406.27849998418,75168.4231000254,89715.0104999309,112278.363900026,134053.401599987,143602.447699988,313375.84569992,336813.983400003,NA,328014.150199946,334763.646099949,NA,307771.163999918,298542.488900013,332978.426499991,294940.83690003,NA,NA,NA,NA,NA,NA,313285.611500032,313368.550100015,NA,335139.010099927,NA,NA,335058.963399963,4608.74599998351,336035.297199967,4608.77019993495,335726.761099999,209534.480599919,NA,313248.670300003,5388.68069997989,NA,NA,154482.019999996,5,17660.4026999557,6,1,-20
85.7142857142857,96,2608.3970571469,"l","accuracy","ju1996be","1","o","a","1","0","0",37,3,700,"Tue Mar 28 11:12:17 2023",1,"eher leicht","accuracy","Experiment.osexp","Bild_s3_o_11.png",1080,"be",1996,"ju","orangene","C:/Users/steff/Documents/Universität/Master Psychologie/SS 2022/Masterarbeit/Experiment/subject-6.csv",0,0,0,"a",-5,15,"a","a",598.376700072549,598.376700072549,6,NA,337990.537000005,NA,313285.684300005,313214.7597,338589.592700009,337681.429399992,42750.2333000302,NA,NA,4608.63769997377,NA,308219.502300024,337688.633000012,337138.559299987,NA,335139.073399943,NA,313375.711099943,5406.27849998418,75168.4231000254,89715.0104999309,112278.363900026,134053.401599987,143602.447699988,313375.84569992,338589.661899954,NA,328014.150199946,334763.646099949,NA,307771.163999918,298542.488900013,336837.52489998,294940.83690003,NA,NA,NA,NA,NA,NA,313285.611500032,313368.550100015,NA,335139.010099927,NA,NA,337132.850899943,4608.74599998351,337990.726699936,4608.77019993495,337681.347299949,209534.480599919,NA,313248.670300003,5388.68069997989,NA,NA,154482.019999996,6,18258.7794000283,7,1,-20
87.5,96,2409.70243749325,"l","accuracy","ju1996be","1","o","a","1","0","0",38,3,700,"Tue Mar 28 11:12:17 2023",0,"sehr leicht","accuracy","Experiment.osexp","Bild_s4_o_12.png",1080,"be",1996,"ju","orangene","C:/Users/steff/Documents/Universität/Master Psychologie/SS 2022/Masterarbeit/Experiment/subject-6.csv",0,0,0,"a",0,20,"a","a",1018.84009991772,1018.84009991772,6,NA,339810.150699923,NA,313285.684300005,313214.7597,340829.761300003,339501.664399984,42750.2333000302,NA,NA,4608.63769997377,NA,308219.502300024,339508.645599941,338920.460199937,NA,338994.69089997,NA,313375.711099943,5406.27849998418,75168.4231000254,89715.0104999309,112278.363900026,134053.401599987,143602.447699988,313375.84569992,340829.8373,NA,328014.150199946,334763.646099949,NA,307771.163999918,298542.488900013,338619.866000023,294940.83690003,NA,NA,NA,NA,NA,NA,313285.611500032,313368.550100015,NA,338994.609099929,NA,NA,338915.039399988,4608.74599998351,339810.255000019,4608.77019993495,339501.586699975,209534.480599919,NA,313248.670300003,5388.68069997989,NA,NA,154482.019999996,7,19277.619499946,8,1,-20
88.8888888888889,96,2222.98462220675,"l","accuracy","ju1996be","1","b","l","1","0","0",39,3,700,"Tue Mar 28 11:12:17 2023",0,"sehr leicht","accuracy","Experiment.osexp","Bild_s4_b_15.png",1080,"be",1996,"ju","orangene","C:/Users/steff/Documents/Universität/Master Psychologie/SS 2022/Masterarbeit/Experiment/subject-6.csv",0,0,0,"a",5,25,"l","l",729.2420999147,729.2420999147,6,NA,342003.756899969,NA,313285.684300005,313214.7597,342733.746299986,341695.55049995,42750.2333000302,NA,NA,4608.63769997377,NA,308219.502300024,341702.427899931,341151.34099999,NA,338994.69089997,NA,313375.711099943,5406.27849998418,75168.4231000254,89715.0104999309,112278.363900026,134053.401599987,143602.447699988,313375.84569992,342733.817799948,NA,328014.150199946,334763.646099949,NA,307771.163999918,298542.488900013,340850.562399952,294940.83690003,NA,NA,NA,NA,NA,NA,313285.611500032,313368.550100015,NA,338994.609099929,NA,NA,341145.854200004,4608.74599998351,342003.855700023,4608.77019993495,341695.472399937,209534.480599919,NA,313248.670300003,5388.68069997989,NA,NA,154482.019999996,8,20006.8615998607,9,1,-20
90,96,2119.90050998284,"l","accuracy","ju1996be","1","b","l","1","0","0",40,3,700,"Tue Mar 28 11:12:17 2023",0,"sehr leicht","accuracy","Experiment.osexp","Bild_s4_b_16.png",1080,"be",1996,"ju","orangene","C:/Users/steff/Documents/Universität/Master Psychologie/SS 2022/Masterarbeit/Experiment/subject-6.csv",0,0,0,"a",10,30,"l","l",1192.14349996764,1192.14349996764,6,NA,343940.758000012,NA,313285.684300005,313214.7597,345133.742699982,343632.58580002,42750.2333000302,NA,NA,4608.63769997377,NA,308219.502300024,343639.83609993,343049.55320002,NA,343123.655200005,NA,313375.711099943,5406.27849998418,75168.4231000254,89715.0104999309,112278.363900026,134053.401599987,143602.447699988,313375.84569992,345133.814299945,NA,328014.150199946,334763.646099949,NA,307771.163999918,298542.488900013,342748.816499952,294940.83690003,NA,NA,NA,NA,NA,NA,313285.611500032,313368.550100015,NA,343123.574599973,NA,NA,343044.059399981,4608.74599998351,343940.952399978,4608.77019993495,343632.50930002,209534.480599919,NA,313248.670300003,5388.68069997989,NA,NA,154482.019999996,9,21199.0050998284,10,1,-20
90.9090909090909,96,1995.05453634033,"l","accuracy","ju1996be","1","o","a","1","0","0",41,3,700,"Tue Mar 28 11:12:17 2023",0,"sehr leicht","accuracy","Experiment.osexp","Bild_s4_o_17.png",1080,"be",1996,"ju","orangene","C:/Users/steff/Documents/Universität/Master Psychologie/SS 2022/Masterarbeit/Experiment/subject-6.csv",0,0,0,"a",15,35,"a","a",746.594799915329,746.594799915329,6,NA,346306.374099921,NA,313285.684300005,313214.7597,347053.874799982,345998.572699958,42750.2333000302,NA,NA,4608.63769997377,NA,308219.502300024,346005.512199947,345449.688400025,NA,343123.655200005,NA,313375.711099943,5406.27849998418,75168.4231000254,89715.0104999309,112278.363900026,134053.401599987,143602.447699988,313375.84569992,347053.95099998,NA,328014.150199946,334763.646099949,NA,307771.163999918,298542.488900013,345149.015999981,294940.83690003,NA,NA,NA,NA,NA,NA,313285.611500032,313368.550100015,NA,343123.574599973,NA,NA,345444.240499986,4608.74599998351,346306.509900023,4608.77019993495,345998.494099942,209534.480599919,NA,313248.670300003,5388.68069997989,NA,NA,154482.019999996,10,21945.5998997437,11,1,-20
91.6666666666667,96,1892.59899997463,"l","accuracy","ju1996be","1","o","a","1","0","0",42,3,700,"Tue Mar 28 11:12:17 2023",1,"eher leicht","accuracy","Experiment.osexp","Bild_s3_o_23.png",1080,"be",1996,"ju","orangene","C:/Users/steff/Documents/Universität/Master Psychologie/SS 2022/Masterarbeit/Experiment/subject-6.csv",0,0,0,"a",20,40,"a","a",765.588099951856,765.588099951856,6,NA,348271.393100033,NA,313285.684300005,313214.7597,349037.855500006,347963.098099921,42750.2333000302,NA,NA,4608.63769997377,NA,308219.502300024,347970.43440002,347378.397800028,NA,347453.580699977,NA,313375.711099943,5406.27849998418,75168.4231000254,89715.0104999309,112278.363900026,134053.401599987,143602.447699988,313375.84569992,349037.932700012,NA,328014.150199946,334763.646099949,NA,307771.163999918,298542.488900013,347077.532100026,294940.83690003,NA,NA,NA,NA,NA,NA,313285.611500032,313368.550100015,NA,347453.507500002,NA,NA,347372.858899995,4608.74599998351,348271.499600029,4608.77019993495,347963.02070003,209534.480599919,NA,313248.670300003,5388.68069997989,NA,NA,154482.019999996,11,22711.1879996955,12,1,-20
92.3076923076923,96,1804.89837689898,"l","accuracy","ju1996be","1","b","l","1","0","0",43,3,700,"Tue Mar 28 11:12:17 2023",1,"eher leicht","accuracy","Experiment.osexp","Bild_s3_b_2.png",1080,"be",1996,"ju","orangene","C:/Users/steff/Documents/Universität/Master Psychologie/SS 2022/Masterarbeit/Experiment/subject-6.csv",0,0,0,"a",25,45,"l","l",752.490899991244,752.490899991244,6,NA,350236.467999988,NA,313285.684300005,313214.7597,350989.852500032,349928.313200013,42750.2333000302,NA,NA,4608.63769997377,NA,308219.502300024,349935.245699948,349376.184999943,NA,347453.580699977,NA,313375.711099943,5406.27849998418,75168.4231000254,89715.0104999309,112278.363900026,134053.401599987,143602.447699988,313375.84569992,350989.930699929,NA,328014.150199946,334763.646099949,NA,307771.163999918,298542.488900013,349075.235800003,294940.83690003,NA,NA,NA,NA,NA,NA,313285.611500032,313368.550100015,NA,347453.507500002,NA,NA,349370.670899982,4608.74599998351,350236.570999958,4608.77019993495,349928.181399941,209534.480599919,NA,313248.670300003,5388.68069997989,NA,NA,154482.019999996,12,23463.6788996868,13,1,-20
92.8571428571429,96,1836.99409997955,"l","accuracy","ju1996be","1","b","l","1","0","0",44,3,700,"Tue Mar 28 11:12:17 2023",2,"eher schwer","accuracy","Experiment.osexp","Bild_s2_b_17.png",1080,"be",1996,"ju","orangene","C:/Users/steff/Documents/Universität/Master Psychologie/SS 2022/Masterarbeit/Experiment/subject-6.csv",0,0,0,"a",30,50,"l","l",2254.23850002699,2254.23850002699,6,NA,352206.701299991,NA,313285.684300005,313214.7597,354461.728699971,351898.016499938,42750.2333000302,NA,NA,4608.63769997377,NA,308219.502300024,351905.191399972,351306.230599992,NA,351379.968099995,NA,313375.711099943,5406.27849998418,75168.4231000254,89715.0104999309,112278.363900026,134053.401599987,143602.447699988,313375.84569992,354461.807399988,NA,328014.150199946,334763.646099949,NA,307771.163999918,298542.488900013,351005.557999946,294940.83690003,NA,NA,NA,NA,NA,NA,313285.611500032,313368.550100015,NA,351379.889499978,NA,NA,351300.731800031,4608.74599998351,352206.819899962,4608.77019993495,351897.938199923,209534.480599919,NA,313248.670300003,5388.68069997989,NA,NA,154482.019999996,13,25717.9173997138,14,1,-20
93.3333333333333,96,1768.02811998253,"l","accuracy","ju1996be","1","o","a","1","0","0",45,3,700,"Tue Mar 28 11:12:17 2023",2,"eher schwer","accuracy","Experiment.osexp","Bild_s2_o_21.png",1080,"be",1996,"ju","orangene","C:/Users/steff/Documents/Universität/Master Psychologie/SS 2022/Masterarbeit/Experiment/subject-6.csv",0,0,0,"a",35,55,"a","a",802.504400024191,802.504400024191,6,NA,355626.361600007,NA,313285.684300005,313214.7597,356429.695499945,355317.987799994,42750.2333000302,NA,NA,4608.63769997377,NA,308219.502300024,355325.170699973,354777.236599941,NA,351379.968099995,NA,313375.711099943,5406.27849998418,75168.4231000254,89715.0104999309,112278.363900026,134053.401599987,143602.447699988,313375.84569992,356429.769099923,NA,328014.150199946,334763.646099949,NA,307771.163999918,298542.488900013,354476.409499999,294940.83690003,NA,NA,NA,NA,NA,NA,313285.611500032,313368.550100015,NA,351379.889499978,NA,NA,354771.770599997,4608.74599998351,355626.556399977,4608.77019993495,355317.909199977,209534.480599919,NA,313248.670300003,5388.68069997989,NA,NA,154482.019999996,14,26520.421799738,15,1,-20
87.5,96,1765.51878123428,"l","accuracy","ju1996be","0","b","l","0","0","0",46,3,700,"Tue Mar 28 11:12:17 2023",3,"sehr schwer","accuracy","Experiment.osexp","Bild_s1_b_15.png",1080,"be",1996,"ju","orangene","C:/Users/steff/Documents/Universität/Master Psychologie/SS 2022/Masterarbeit/Experiment/subject-6.csv",1,0,0,"a",25,45,"a","a",1727.87870001048,1727.87870001048,6,NA,357661.108999979,NA,313285.684300005,313214.7597,359389.872999978,357353.103899979,42750.2333000302,NA,NA,4608.63769997377,NA,308219.502300024,357359.974000021,356753.974799998,NA,356832.367199939,NA,313375.711099943,5406.27849998418,75168.4231000254,89715.0104999309,112278.363900026,134053.401599987,143602.447699988,313375.84569992,359389.94439994,NA,328014.150199946,334763.646099949,NA,307771.163999918,298542.488900013,356452.923399978,294940.83690003,NA,NA,NA,NA,NA,NA,313285.611500032,313368.550100015,NA,356832.289099926,NA,NA,356748.437099974,4608.74599998351,357661.211499944,4608.77019993495,357353.027799982,209534.480599919,NA,313248.670300003,5388.68069997989,NA,NA,154482.019999996,14,28248.3004997484,16,1,-20
88.2352941176471,96,1751.22865881113,"l","accuracy","ju1996be","1","b","l","1","0","0",47,3,700,"Tue Mar 28 11:12:17 2023",3,"sehr schwer","accuracy","Experiment.osexp","Bild_s1_b_22.png",1080,"be",1996,"ju","orangene","C:/Users/steff/Documents/Universität/Master Psychologie/SS 2022/Masterarbeit/Experiment/subject-6.csv",0,0,0,"a",30,50,"l","l",1522.58670004085,1522.58670004085,6,NA,360570.392100024,NA,313285.684300005,313214.7597,362093.829000019,360261.921299971,42750.2333000302,NA,NA,4608.63769997377,NA,308219.502300024,360268.903899938,359705.074699945,NA,356832.367199939,NA,313375.711099943,5406.27849998418,75168.4231000254,89715.0104999309,112278.363900026,134053.401599987,143602.447699988,313375.84569992,362093.905400019,NA,328014.150199946,359404.22799997,NA,307771.163999918,298542.488900013,356452.923399978,294940.83690003,NA,NA,NA,NA,NA,NA,313285.611500032,313368.550100015,NA,356832.289099926,NA,NA,359699.439399992,4608.74599998351,360570.494799991,4608.77019993495,360261.839899933,209534.480599919,NA,313248.670300003,5388.68069997989,NA,NA,154482.019999996,15,29770.8871997893,17,1,-20
50,96,5380.77920000069,"l","speed","ju1996be","0","o","a","0","0","0",48,4,700,"Tue Mar 28 11:12:17 2023",3,"sehr schwer","accuracy","Experiment.osexp","Bild_s1_o_1.png",1080,"be",1996,"ju","orangene","C:/Users/steff/Documents/Universität/Master Psychologie/SS 2022/Masterarbeit/Experiment/subject-6.csv",0,0,1,"a",20,-10,"l","l",877.857899991795,877.857899991795,6,NA,378399.114000029,NA,313285.684300005,367564.138200018,379277.665199945,378089.979099925,42750.2333000302,NA,NA,4608.63769997377,NA,362568.708200008,378097.049199976,362418.92820003,NA,377582.731799921,NA,367697.23489997,5406.27849998418,75168.4231000254,89715.0104999309,112278.363900026,134053.401599987,143602.447699988,367697.368099936,379277.77419996,NA,377581.62870002,359404.22799997,NA,307771.163999918,298542.488900013,362117.227299954,294940.83690003,NA,NA,NA,NA,NA,NA,313285.611500032,367689.983799937,NA,377582.681900007,NA,NA,362413.270800025,4608.74599998351,378399.202900007,4608.77019993495,378089.784599957,209534.480599919,NA,313248.670300003,5388.68069997989,NA,NA,154482.019999996,1,10761.5584000014,2,1,30
33.3333333333333,96,3884.0748333605,"l","speed","ju1996be","0","b","l","0","0","0",49,4,700,"Tue Mar 28 11:12:17 2023",3,"sehr schwer","accuracy","Experiment.osexp","Bild_s1_b_25.png",1080,"be",1996,"ju","orangene","C:/Users/steff/Documents/Universität/Master Psychologie/SS 2022/Masterarbeit/Experiment/subject-6.csv",0,0,1,"a",10,-20,"a","a",890.666100080125,890.666100080125,6,NA,380450.198999955,NA,313285.684300005,367564.138200018,381341.675299918,380142.019700026,42750.2333000302,NA,NA,4608.63769997377,NA,362568.708200008,380149.430799996,379593.621599954,NA,377582.731799921,NA,367697.23489997,5406.27849998418,75168.4231000254,89715.0104999309,112278.363900026,134053.401599987,143602.447699988,367697.368099936,381341.781100025,NA,377581.62870002,359404.22799997,NA,379292.728099972,298542.488900013,362117.227299954,294940.83690003,NA,NA,NA,NA,NA,NA,313285.611500032,367689.983799937,NA,377582.681900007,NA,NA,379588.113699923,4608.74599998351,380450.393899926,4608.77019993495,380141.820300021,209534.480599919,NA,313248.670300003,5388.68069997989,NA,NA,154482.019999996,1,11652.2245000815,3,1,30
25,96,3144.03237504303,"l","speed","ju1996be","0","b","l","0","0","0",50,4,700,"Tue Mar 28 11:12:17 2023",2,"eher schwer","accuracy","Experiment.osexp","Bild_s2_b_2.png",1080,"be",1996,"ju","orangene","C:/Users/steff/Documents/Universität/Master Psychologie/SS 2022/Masterarbeit/Experiment/subject-6.csv",0,0,1,"a",0,-30,"a","a",923.905000090599,923.905000090599,6,NA,382577.026200015,NA,313285.684300005,367564.138200018,383501.678499975,382267.917999998,42750.2333000302,NA,NA,4608.63769997377,NA,362568.708200008,382275.057299994,381672.130699968,NA,381747.554100002,NA,367697.23489997,5406.27849998418,75168.4231000254,89715.0104999309,112278.363900026,134053.401599987,143602.447699988,367697.368099936,383501.780199935,NA,377581.62870002,359404.22799997,NA,381371.184999938,298542.488900013,362117.227299954,294940.83690003,NA,NA,NA,NA,NA,NA,313285.611500032,367689.983799937,NA,381747.479300015,NA,NA,381666.47019994,4608.74599998351,382577.153599937,4608.77019993495,382267.839399981,209534.480599919,NA,313248.670300003,5388.68069997989,NA,NA,154482.019999996,1,12576.1295001721,4,1,30
40,96,2654.08350003418,"l","speed","ju1996be","1","b","l","0","1","0",51,4,700,"Tue Mar 28 11:12:17 2023",2,"eher schwer","accuracy","Experiment.osexp","Bild_s2_b_16.png",1080,"be",1996,"ju","orangene","C:/Users/steff/Documents/Universität/Master Psychologie/SS 2022/Masterarbeit/Experiment/subject-6.csv",0,0,0,"a",5,-25,"l","l",694.287999998778,694.287999998778,6,NA,384678.662499995,NA,313285.684300005,367564.138200018,385373.771199957,384370.658900007,42750.2333000302,NA,NA,4608.63769997377,NA,362568.708200008,384377.695899922,383822.143899975,NA,381747.554100002,NA,367697.23489997,5406.27849998418,75168.4231000254,89715.0104999309,112278.363900026,134053.401599987,143602.447699988,367697.368099936,385373.848299962,NA,377581.62870002,359404.22799997,NA,383520.855300012,298542.488900013,362117.227299954,294940.83690003,NA,NA,NA,NA,NA,NA,313285.611500032,367689.983799937,NA,381747.479300015,NA,NA,383816.648999928,4608.74599998351,384678.772600018,4608.77019993495,384370.578399976,209534.480599919,NA,313248.670300003,5388.68069997989,NA,NA,154482.019999996,2,13270.4175001709,5,1,30
50,96,2332.45393336983,"l","speed","ju1996be","1","o","a","0","0","1",52,4,700,"Tue Mar 28 11:12:17 2023",1,"eher leicht","accuracy","Experiment.osexp","Bild_s3_o_25.png",1080,"be",1996,"ju","orangene","C:/Users/steff/Documents/Universität/Master Psychologie/SS 2022/Masterarbeit/Experiment/subject-6.csv",0,0,0,"a",-5,-35,"a","a",724.306100048125,724.306100048125,6,NA,386600.471899961,NA,313285.684300005,367564.138200018,387325.796799967,386291.822399944,42750.2333000302,NA,NA,4608.63769997377,NA,362568.708200008,386299.154700013,385705.760499928,NA,385783.22360001,NA,367697.23489997,5406.27849998418,75168.4231000254,89715.0104999309,112278.363900026,134053.401599987,143602.447699988,367697.368099936,387325.905999984,NA,377581.62870002,359404.22799997,NA,383520.855300012,298542.488900013,362117.227299954,385404.741399921,NA,NA,NA,NA,NA,NA,313285.611500032,367689.983799937,NA,385783.144799993,NA,NA,385700.296499999,4608.74599998351,386600.718199974,4608.77019993495,386291.747399955,209534.480599919,NA,313248.670300003,5388.68069997989,NA,NA,154482.019999996,3,13994.723600219,6,1,30
57.1428571428571,96,2094.6502286076,"l","speed","ju1996be","1","o","a","0","1","0",53,4,700,"Tue Mar 28 11:12:17 2023",1,"eher leicht","accuracy","Experiment.osexp","Bild_s3_o_2.png",1080,"be",1996,"ju","orangene","C:/Users/steff/Documents/Universität/Master Psychologie/SS 2022/Masterarbeit/Experiment/subject-6.csv",0,0,0,"a",0,-30,"a","a",667.828000034206,667.828000034206,6,NA,388497.141700005,NA,313285.684300005,367564.138200018,389165.693599964,388188.423499931,42750.2333000302,NA,NA,4608.63769997377,NA,362568.708200008,388195.716299932,387641.161200008,NA,385783.22360001,NA,367697.23489997,5406.27849998418,75168.4231000254,89715.0104999309,112278.363900026,134053.401599987,143602.447699988,367697.368099936,389165.778600029,NA,377581.62870002,359404.22799997,387340.067200013,383520.855300012,298542.488900013,362117.227299954,385404.741399921,NA,NA,NA,NA,NA,NA,313285.611500032,367689.983799937,NA,385783.144799993,NA,NA,387635.71870001,4608.74599998351,388497.22879997,4608.77019993495,388188.347699936,209534.480599919,NA,313248.670300003,5388.68069997989,NA,NA,154482.019999996,4,14662.5516002532,7,1,30
62.5,96,1899.99913753127,"l","speed","ju1996be","1","b","l","0","1","0",54,4,700,"Tue Mar 28 11:12:17 2023",0,"sehr leicht","accuracy","Experiment.osexp","Bild_s4_b_3.png",1080,"be",1996,"ju","orangene","C:/Users/steff/Documents/Universität/Master Psychologie/SS 2022/Masterarbeit/Experiment/subject-6.csv",0,0,0,"a",5,-25,"l","l",537.44149999693,537.44149999693,6,NA,390387.537100003,NA,313285.684300005,367564.138200018,390925.758400001,390079.293599934,42750.2333000302,NA,NA,4608.63769997377,NA,362568.708200008,390086.384500028,389493.89329995,NA,389567.187299952,NA,367697.23489997,5406.27849998418,75168.4231000254,89715.0104999309,112278.363900026,134053.401599987,143602.447699988,367697.368099936,390925.836800016,NA,377581.62870002,359404.22799997,387340.067200013,383520.855300012,298542.488900013,362117.227299954,389193.108999985,NA,NA,NA,NA,NA,NA,313285.611500032,367689.983799937,NA,389567.108699935,NA,NA,389488.425599993,4608.74599998351,390387.635899941,4608.77019993495,390079.142499948,209534.480599919,NA,313248.670300003,5388.68069997989,NA,NA,154482.019999996,5,15199.9931002501,8,1,30
66.6666666666667,96,1750.95231114473,"l","speed","ju1996be","1","o","a","0","1","0",55,4,700,"Tue Mar 28 11:12:17 2023",0,"sehr leicht","accuracy","Experiment.osexp","Bild_s4_o_10.png",1080,"be",1996,"ju","orangene","C:/Users/steff/Documents/Universität/Master Psychologie/SS 2022/Masterarbeit/Experiment/subject-6.csv",0,0,0,"a",10,-20,"a","a",558.57770005241,558.57770005241,6,NA,392094.379600021,NA,313285.684300005,367564.138200018,392653.718399932,391785.824400023,42750.2333000302,NA,NA,4608.63769997377,NA,362568.708200008,391793.269100017,391241.663999972,NA,389567.187299952,NA,367697.23489997,5406.27849998418,75168.4231000254,89715.0104999309,112278.363900026,134053.401599987,143602.447699988,367697.368099936,392653.799599968,NA,377581.62870002,359404.22799997,387340.067200013,383520.855300012,298542.488900013,362117.227299954,390940.981399966,NA,NA,NA,NA,NA,NA,313285.611500032,367689.983799937,NA,389567.108699935,NA,NA,391236.173399957,4608.74599998351,392094.47729995,4608.77019993495,391785.742999986,209534.480599919,NA,313248.670300003,5388.68069997989,NA,NA,154482.019999996,6,15758.5708003026,9,1,30
70,96,1675.93377003213,"l","speed","ju1996be","1","o","a","0","0","1",56,4,700,"Tue Mar 28 11:12:17 2023",0,"sehr leicht","accuracy","Experiment.osexp","Bild_s4_o_1.png",1080,"be",1996,"ju","orangene","C:/Users/steff/Documents/Universität/Master Psychologie/SS 2022/Masterarbeit/Experiment/subject-6.csv",0,0,0,"a",0,-30,"a","a",1000.76690001879,1000.76690001879,6,NA,393908.167099929,NA,313285.684300005,367564.138200018,394909.796599997,393597.586499993,42750.2333000302,NA,NA,4608.63769997377,NA,362568.708200008,393604.70799997,393004.50889999,NA,393077.807700029,NA,367697.23489997,5406.27849998418,75168.4231000254,89715.0104999309,112278.363900026,134053.401599987,143602.447699988,367697.368099936,394909.897799953,NA,377581.62870002,359404.22799997,387340.067200013,383520.855300012,298542.488900013,362117.227299954,392703.761399956,NA,NA,NA,NA,NA,NA,313285.611500032,367689.983799937,NA,393077.732899925,NA,NA,392998.979900032,4608.74599998351,393908.266599989,4608.77019993495,393597.508699982,209534.480599919,NA,313248.670300003,5388.68069997989,NA,NA,154482.019999996,7,16759.3377003213,10,1,30
72.7272727272727,96,1576.28854548305,"l","speed","ju1996be","1","o","a","0","1","0",57,4,700,"Tue Mar 28 11:12:17 2023",0,"sehr leicht","accuracy","Experiment.osexp","Bild_s4_o_16.png",1080,"be",1996,"ju","orangene","C:/Users/steff/Documents/Universität/Master Psychologie/SS 2022/Masterarbeit/Experiment/subject-6.csv",0,0,0,"a",5,-25,"a","a",579.836299992166,579.836299992166,6,NA,396089.00519996,NA,313285.684300005,367564.138200018,396669.744899962,395781.166899949,42750.2333000302,NA,NA,4608.63769997377,NA,362568.708200008,395788.147900021,395233.226799988,NA,393077.807700029,NA,367697.23489997,5406.27849998418,75168.4231000254,89715.0104999309,112278.363900026,134053.401599987,143602.447699988,367697.368099936,396669.82499999,NA,377581.62870002,359404.22799997,394932.412900031,383520.855300012,298542.488900013,362117.227299954,392703.761399956,NA,NA,NA,NA,NA,NA,313285.611500032,367689.983799937,NA,393077.732899925,NA,NA,395227.773800027,4608.74599998351,396089.21190002,4608.77019993495,395781.084700022,209534.480599919,NA,313248.670300003,5388.68069997989,NA,NA,154482.019999996,8,17339.1740003135,11,1,30
75,96,1502.05271668771,"l","speed","ju1996be","1","o","a","0","1","0",58,4,700,"Tue Mar 28 11:12:17 2023",1,"eher leicht","accuracy","Experiment.osexp","Bild_s3_o_9.png",1080,"be",1996,"ju","orangene","C:/Users/steff/Documents/Universität/Master Psychologie/SS 2022/Masterarbeit/Experiment/subject-6.csv",0,0,0,"a",10,-20,"a","a",685.458599939011,685.458599939011,6,NA,397887.493700022,NA,313285.684300005,367564.138200018,398573.792499956,397578.382099979,42750.2333000302,NA,NA,4608.63769997377,NA,362568.708200008,397585.875899997,396999.168099952,NA,397072.857299936,NA,367697.23489997,5406.27849998418,75168.4231000254,89715.0104999309,112278.363900026,134053.401599987,143602.447699988,367697.368099936,398573.875000002,NA,377581.62870002,359404.22799997,394932.412900031,383520.855300012,298542.488900013,362117.227299954,396698.452999932,NA,NA,NA,NA,NA,NA,313285.611500032,367689.983799937,NA,397072.783399955,NA,NA,396993.668699986,4608.74599998351,397887.595399981,4608.77019993495,397578.303299961,209534.480599919,NA,313248.670300003,5388.68069997989,NA,NA,154482.019999996,9,18024.6326002525,12,1,30
76.9230769230769,96,1429.08648463288,"l","speed","ju1996be","1","o","a","0","1","0",59,4,700,"Tue Mar 28 11:12:17 2023",1,"eher leicht","accuracy","Experiment.osexp","Bild_s3_o_8.png",1080,"be",1996,"ju","orangene","C:/Users/steff/Documents/Universität/Master Psychologie/SS 2022/Masterarbeit/Experiment/subject-6.csv",0,0,0,"a",15,-15,"a","a",553.491699974984,553.491699974984,6,NA,399747.485699947,NA,313285.684300005,367564.138200018,400301.780399983,399438.890599995,42750.2333000302,NA,NA,4608.63769997377,NA,362568.708200008,399446.210099966,398888.733700034,NA,397072.857299936,NA,367697.23489997,5406.27849998418,75168.4231000254,89715.0104999309,112278.363900026,134053.401599987,143602.447699988,367697.368099936,400301.86300003,NA,377581.62870002,359404.22799997,394932.412900031,383520.855300012,298542.488900013,362117.227299954,398588.04339997,NA,NA,NA,NA,NA,NA,313285.611500032,367689.983799937,NA,397072.783399955,NA,NA,398883.304800023,4608.74599998351,399747.587200021,4608.77019993495,399438.81349999,209534.480599919,NA,313248.670300003,5388.68069997989,NA,NA,154482.019999996,10,18578.1243002275,13,1,30
78.5714285714286,96,1370.64384286558,"l","speed","ju1996be","1","b","l","0","1","0",60,4,700,"Tue Mar 28 11:12:17 2023",2,"eher schwer","accuracy","Experiment.osexp","Bild_s2_b_15.png",1080,"be",1996,"ju","orangene","C:/Users/steff/Documents/Universität/Master Psychologie/SS 2022/Masterarbeit/Experiment/subject-6.csv",0,0,0,"a",20,-10,"l","l",610.889499890618,610.889499890618,6,NA,401513.95199995,NA,313285.684300005,367564.138200018,402125.724999933,401205.912899925,42750.2333000302,NA,NA,4608.63769997377,NA,362568.708200008,401213.117899955,400625.155900023,NA,400700.978299952,NA,367697.23489997,5406.27849998418,75168.4231000254,89715.0104999309,112278.363900026,134053.401599987,143602.447699988,367697.368099936,402125.805199961,NA,377581.62870002,359404.22799997,394932.412900031,383520.855300012,298542.488900013,362117.227299954,400322.271700017,NA,NA,NA,NA,NA,NA,313285.611500032,367689.983799937,NA,400700.903599965,NA,NA,400617.443599971,4608.74599998351,401514.145600027,4608.77019993495,401205.832900014,209534.480599919,NA,313248.670300003,5388.68069997989,NA,NA,154482.019999996,11,19189.0138001181,14,1,30
73.3333333333333,96,1321.90707334472,"l","speed","ju1996be","0","b","l","0","0","0",61,4,700,"Tue Mar 28 11:12:17 2023",2,"eher schwer","accuracy","Experiment.osexp","Bild_s2_b_10.png",1080,"be",1996,"ju","orangene","C:/Users/steff/Documents/Universität/Master Psychologie/SS 2022/Masterarbeit/Experiment/subject-6.csv",0,1,0,"a",10,-20,"a","a",639.592300052755,639.592300052755,6,NA,403293.344800011,NA,313285.684300005,367564.138200018,403933.929999941,402984.820000012,42750.2333000302,NA,NA,4608.63769997377,NA,362568.708200008,402992.022100021,402442.490899935,NA,400700.978299952,NA,367697.23489997,5406.27849998418,75168.4231000254,89715.0104999309,112278.363900026,134053.401599987,143602.447699988,367697.368099936,403934.031700017,NA,377581.62870002,359404.22799997,394932.412900031,383520.855300012,298542.488900013,362117.227299954,402141.913799918,NA,NA,NA,NA,NA,NA,313285.611500032,367689.983799937,NA,400700.903599965,NA,NA,402436.961599975,4608.74599998351,403293.446699972,4608.77019993495,402984.744400019,209534.480599919,NA,313248.670300003,5388.68069997989,NA,NA,154482.019999996,11,19828.6061001709,15,1,30
75,96,1317.71795001259,"l","speed","ju1996be","1","o","a","0","0","1",62,4,700,"Tue Mar 28 11:12:17 2023",3,"sehr schwer","accuracy","Experiment.osexp","Bild_s1_o_3.png",1080,"be",1996,"ju","orangene","C:/Users/steff/Documents/Universität/Master Psychologie/SS 2022/Masterarbeit/Experiment/subject-6.csv",0,0,0,"a",0,-30,"a","a",1254.88110003062,1254.88110003062,6,NA,405158.06799999,NA,313285.684300005,367564.138200018,406413.66890003,404850.298999925,42750.2333000302,NA,NA,4608.63769997377,NA,362568.708200008,404857.285599923,404260.453099967,NA,404334.507199936,NA,367697.23489997,5406.27849998418,75168.4231000254,89715.0104999309,112278.363900026,134053.401599987,143602.447699988,367697.368099936,406413.773200009,NA,377581.62870002,359404.22799997,394932.412900031,383520.855300012,403959.67459993,362117.227299954,402141.913799918,NA,NA,NA,NA,NA,NA,313285.611500032,367689.983799937,NA,404334.435499972,NA,NA,404254.955400014,4608.74599998351,405158.169999951,4608.77019993495,404850.213399972,209534.480599919,NA,313248.670300003,5388.68069997989,NA,NA,154482.019999996,12,21083.4872002015,16,1,30
70.5882352941177,96,1292.97216471476,"l","speed","ju1996be","0","o","a","0","0","0",63,4,700,"Tue Mar 28 11:12:17 2023",3,"sehr schwer","accuracy","Experiment.osexp","Bild_s1_o_14.png",1080,"be",1996,"ju","orangene","C:/Users/steff/Documents/Universität/Master Psychologie/SS 2022/Masterarbeit/Experiment/subject-6.csv",0,0,1,"a",-10,-40,"l","l",897.039599949494,897.039599949494,6,NA,407579.786299961,NA,313285.684300005,367564.138200018,408477.843199973,407271.094899974,42750.2333000302,NA,NA,4608.63769997377,NA,362568.708200008,407278.244599933,406728.584900033,NA,404334.507199936,NA,367697.23489997,5406.27849998418,75168.4231000254,89715.0104999309,112278.363900026,134053.401599987,143602.447699988,367697.368099936,408477.95640002,NA,377581.62870002,359404.22799997,406427.816899959,383520.855300012,403959.67459993,362117.227299954,402141.913799918,NA,NA,NA,NA,NA,NA,313285.611500032,367689.983799937,NA,404334.435499972,NA,NA,406723.026299966,4608.74599998351,407580.002499977,4608.77019993495,407271.015599952,209534.480599919,NA,313248.670300003,5388.68069997989,NA,NA,154482.019999996,12,21980.526800151,17,1,30
50,96,2238.29710000427,"l","accuracy","ju1996be","0","o","a","0","0","0",64,5,700,"Tue Mar 28 11:12:17 2023",3,"sehr schwer","accuracy","Experiment.osexp","Bild_s1_o_20.png",1080,"be",1996,"ju","orangene","C:/Users/steff/Documents/Universität/Master Psychologie/SS 2022/Masterarbeit/Experiment/subject-6.csv",1,0,0,"a",-20,-10,"l","l",1124.74699993618,1124.74699993618,6,NA,418264.124499983,NA,414011.200499954,413939.370799926,419389.672599966,417955.498200026,42750.2333000302,NA,NA,4608.63769997377,NA,408944.177099969,417962.630999973,408793.39310003,NA,417454.679999966,NA,414101.081399946,5406.27849998418,75168.4231000254,89715.0104999309,112278.363900026,134053.401599987,143602.447699988,414101.188799948,419389.743999927,NA,417453.640799969,359404.22799997,406427.816899959,408492.603700026,403959.67459993,362117.227299954,402141.913799918,NA,NA,NA,NA,NA,NA,414011.124099954,414093.877999927,NA,417454.636499984,NA,NA,408787.859000033,4608.74599998351,418264.292599983,4608.77019993495,417955.308399978,209534.480599919,NA,413973.685799981,5388.68069997989,NA,NA,154482.019999996,1,4476.59420000855,2,1,-10
33.3333333333333,96,1869.26103332856,"l","accuracy","ju1996be","0","o","a","0","0","0",65,5,700,"Tue Mar 28 11:12:17 2023",3,"sehr schwer","accuracy","Experiment.osexp","Bild_s1_o_18.png",1080,"be",1996,"ju","orangene","C:/Users/steff/Documents/Universität/Master Psychologie/SS 2022/Masterarbeit/Experiment/subject-6.csv",1,0,0,"a",-30,-20,"l","l",1131.18889997713,1131.18889997713,6,NA,420577.692599967,NA,414011.200499954,413939.370799926,421709.682599991,420269.738500006,42750.2333000302,NA,NA,4608.63769997377,NA,408944.177099969,420276.611599955,419718.008499942,NA,417454.679999966,NA,414101.081399946,5406.27849998418,75168.4231000254,89715.0104999309,112278.363900026,134053.401599987,143602.447699988,414101.188799948,421709.770799964,NA,417453.640799969,419416.943299933,406427.816899959,408492.603700026,403959.67459993,362117.227299954,402141.913799918,NA,NA,NA,NA,NA,NA,414011.124099954,414093.877999927,NA,417454.636499984,NA,NA,419712.437200011,4608.74599998351,420577.798599959,4608.77019993495,420269.660199992,209534.480599919,NA,413973.685799981,5388.68069997989,NA,NA,154482.019999996,1,5607.78309998568,3,1,-10
50,96,1652.29132497916,"l","accuracy","ju1996be","1","b","l","1","0","0",66,5,700,"Tue Mar 28 11:12:17 2023",2,"eher schwer","accuracy","Experiment.osexp","Bild_s2_b_13.png",1080,"be",1996,"ju","orangene","C:/Users/steff/Documents/Universität/Master Psychologie/SS 2022/Masterarbeit/Experiment/subject-6.csv",0,0,0,"a",-25,-15,"l","l",1001.38219993096,1001.38219993096,6,NA,422931.559999939,NA,414011.200499954,413939.370799926,423933.729399927,422623.288700008,42750.2333000302,NA,NA,4608.63769997377,NA,408944.177099969,422630.316799972,422034.189600032,NA,422108.715599985,NA,414101.081399946,5406.27849998418,75168.4231000254,89715.0104999309,112278.363900026,134053.401599987,143602.447699988,414101.188799948,423933.812199975,NA,417453.640799969,421733.260000008,406427.816899959,408492.603700026,403959.67459993,362117.227299954,402141.913799918,NA,NA,NA,NA,NA,NA,414011.124099954,414093.877999927,NA,422108.642000007,NA,NA,422028.665199992,4608.74599998351,422931.673799991,4608.77019993495,422623.208399978,209534.480599919,NA,413973.685799981,5388.68069997989,NA,NA,154482.019999996,2,6609.16529991664,4,1,-10
60,96,1465.11093997397,"l","accuracy","ju1996be","1","o","a","1","0","0",67,5,700,"Tue Mar 28 11:12:17 2023",2,"eher schwer","accuracy","Experiment.osexp","Bild_s2_o_5.png",1080,"be",1996,"ju","orangene","C:/Users/steff/Documents/Universität/Master Psychologie/SS 2022/Masterarbeit/Experiment/subject-6.csv",0,0,0,"a",-20,-10,"a","a",716.389399953187,716.389399953187,6,NA,425104.430599953,NA,414011.200499954,413939.370799926,425821.701399982,424796.147599933,42750.2333000302,NA,NA,4608.63769997377,NA,408944.177099969,424803.602100001,424246.323199943,NA,422108.715599985,NA,414101.081399946,5406.27849998418,75168.4231000254,89715.0104999309,112278.363900026,134053.401599987,143602.447699988,414101.188799948,425821.774199954,NA,417453.640799969,421733.260000008,406427.816899959,408492.603700026,403959.67459993,423945.374800009,402141.913799918,NA,NA,NA,NA,NA,NA,414011.124099954,414093.877999927,NA,422108.642000007,NA,NA,424240.826399997,4608.74599998351,425104.638700024,4608.77019993495,424796.069100033,209534.480599919,NA,413973.685799981,5388.68069997989,NA,NA,154482.019999996,3,7325.55469986983,5,1,-10
66.6666666666667,96,1403.74498331221,"l","accuracy","ju1996be","1","o","a","1","0","0",68,5,700,"Tue Mar 28 11:12:17 2023",1,"eher leicht","accuracy","Experiment.osexp","Bild_s3_o_15.png",1080,"be",1996,"ju","orangene","C:/Users/steff/Documents/Universität/Master Psychologie/SS 2022/Masterarbeit/Experiment/subject-6.csv",0,0,0,"a",-15,-5,"a","a",1096.91520000342,1096.91520000342,6,NA,427027.986599947,NA,414011.200499954,413939.370799926,428125.765300007,426719.901199918,42750.2333000302,NA,NA,4608.63769997377,NA,408944.177099969,426727.076699957,426135.505400016,NA,426210.984400008,NA,414101.081399946,5406.27849998418,75168.4231000254,89715.0104999309,112278.363900026,134053.401599987,143602.447699988,414101.188799948,428125.847599935,NA,417453.640799969,421733.260000008,406427.816899959,408492.603700026,403959.67459993,425834.951799945,402141.913799918,NA,NA,NA,NA,NA,NA,414011.124099954,414093.877999927,NA,426210.906699998,NA,NA,426129.995799973,4608.74599998351,427028.086300008,4608.77019993495,426719.824000029,209534.480599919,NA,413973.685799981,5388.68069997989,NA,NA,154482.019999996,4,8422.46989987325,6,1,-10
71.4285714285714,96,1293.14275712906,"l","accuracy","ju1996be","1","o","a","1","0","0",69,5,700,"Tue Mar 28 11:12:17 2023",1,"eher leicht","accuracy","Experiment.osexp","Bild_s3_o_23.png",1080,"be",1996,"ju","orangene","C:/Users/steff/Documents/Universität/Master Psychologie/SS 2022/Masterarbeit/Experiment/subject-6.csv",0,0,0,"a",-10,0,"a","a",629.529400030151,629.529400030151,6,NA,429303.406900028,NA,414011.200499954,413939.370799926,429933.816300007,428995.232400019,42750.2333000302,NA,NA,4608.63769997377,NA,408944.177099969,429002.21549999,428448.43009999,NA,426210.984400008,NA,414101.081399946,5406.27849998418,75168.4231000254,89715.0104999309,112278.363900026,134053.401599987,143602.447699988,414101.188799948,429933.891799999,NA,417453.640799969,421733.260000008,406427.816899959,408492.603700026,403959.67459993,428147.203699918,402141.913799918,NA,NA,NA,NA,NA,NA,414011.124099954,414093.877999927,NA,426210.906699998,NA,NA,428442.58459995,4608.74599998351,429303.503999952,4608.77019993495,428995.156900026,209534.480599919,NA,413973.685799981,5388.68069997989,NA,NA,154482.019999996,5,9051.9992999034,7,1,-10
75,96,1197.29767498211,"l","accuracy","ju1996be","1","o","a","1","0","0",70,5,700,"Tue Mar 28 11:12:17 2023",0,"sehr leicht","accuracy","Experiment.osexp","Bild_s4_o_25.png",1080,"be",1996,"ju","orangene","C:/Users/steff/Documents/Universität/Master Psychologie/SS 2022/Masterarbeit/Experiment/subject-6.csv",0,0,0,"a",-5,5,"a","a",526.38209995348,526.38209995348,6,NA,431150.5473,NA,414011.200499954,413939.370799926,431677.807600005,430841.32779995,42750.2333000302,NA,NA,4608.63769997377,NA,408944.177099969,430848.556099925,430250.245300005,NA,430325.722399983,NA,414101.081399946,5406.27849998418,75168.4231000254,89715.0104999309,112278.363900026,134053.401599987,143602.447699988,414101.188799948,431677.881899988,NA,417453.640799969,421733.260000008,406427.816899959,408492.603700026,403959.67459993,429949.489600025,402141.913799918,NA,NA,NA,NA,NA,NA,414011.124099954,414093.877999927,NA,430325.646799989,NA,NA,430244.703099946,4608.74599998351,431150.636799983,4608.77019993495,430841.246300028,209534.480599919,NA,413973.685799981,5388.68069997989,NA,NA,154482.019999996,6,9578.38139985688,8,1,-10
77.7777777777778,96,1125.03545554096,"l","accuracy","ju1996be","1","o","a","1","0","0",71,5,700,"Tue Mar 28 11:12:17 2023",0,"sehr leicht","accuracy","Experiment.osexp","Bild_s4_o_5.png",1080,"be",1996,"ju","orangene","C:/Users/steff/Documents/Universität/Master Psychologie/SS 2022/Masterarbeit/Experiment/subject-6.csv",0,0,0,"a",0,10,"a","a",546.937700011767,546.937700011767,6,NA,432857.984300004,NA,414011.200499954,413939.370799926,433405.747100012,432550.152099924,42750.2333000302,NA,NA,4608.63769997377,NA,408944.177099969,432557.260000031,431994.966799975,NA,430325.722399983,NA,414101.081399946,5406.27849998418,75168.4231000254,89715.0104999309,112278.363900026,134053.401599987,143602.447699988,414101.188799948,433405.842499924,NA,417453.640799969,421733.260000008,406427.816899959,408492.603700026,403959.67459993,431693.920699996,402141.913799918,NA,NA,NA,NA,NA,NA,414011.124099954,414093.877999927,NA,430325.646799989,NA,NA,431989.273699932,4608.74599998351,432858.083799947,4608.77019993495,432550.075999927,209534.480599919,NA,413973.685799981,5388.68069997989,NA,NA,154482.019999996,7,10125.3190998686,9,1,-10
80,96,1062.90313999634,"l","accuracy","ju1996be","1","o","a","1","0","0",72,5,700,"Tue Mar 28 11:12:17 2023",0,"sehr leicht","accuracy","Experiment.osexp","Bild_s4_o_11.png",1080,"be",1996,"ju","orangene","C:/Users/steff/Documents/Universität/Master Psychologie/SS 2022/Masterarbeit/Experiment/subject-6.csv",0,0,0,"a",5,15,"a","a",503.712300094776,503.712300094776,6,NA,434629.092999967,NA,414011.200499954,413939.370799926,435133.659799933,434320.873899967,42750.2333000302,NA,NA,4608.63769997377,NA,408944.177099969,434328.110400005,433735.782600008,NA,433809.326899936,NA,414101.081399946,5406.27849998418,75168.4231000254,89715.0104999309,112278.363900026,134053.401599987,143602.447699988,414101.188799948,435133.739299956,NA,417453.640799969,421733.260000008,406427.816899959,408492.603700026,403959.67459993,433435.407200013,402141.913799918,NA,NA,NA,NA,NA,NA,414011.124099954,414093.877999927,NA,433809.249099926,NA,NA,433730.354200001,4608.74599998351,434629.301099922,4608.77019993495,434320.795999956,209534.480599919,NA,413973.685799981,5388.68069997989,NA,NA,154482.019999996,8,10629.0313999634,10,1,-10
81.8181818181818,96,1012.45151817883,"l","accuracy","ju1996be","1","o","a","1","0","0",73,5,700,"Tue Mar 28 11:12:17 2023",0,"sehr leicht","accuracy","Experiment.osexp","Bild_s4_o_16.png",1080,"be",1996,"ju","orangene","C:/Users/steff/Documents/Universität/Master Psychologie/SS 2022/Masterarbeit/Experiment/subject-6.csv",0,0,0,"a",10,20,"a","a",507.935300003737,507.935300003737,6,NA,436304.861899931,NA,414011.200499954,413939.370799926,436813.719399972,435996.490099933,42750.2333000302,NA,NA,4608.63769997377,NA,408944.177099969,436004.086400033,435449.637099984,NA,433809.326899936,NA,414101.081399946,5406.27849998418,75168.4231000254,89715.0104999309,112278.363900026,134053.401599987,143602.447699988,414101.188799948,436813.79169994,NA,417453.640799969,421733.260000008,406427.816899959,408492.603700026,403959.67459993,435148.687899928,402141.913799918,NA,NA,NA,NA,NA,NA,414011.124099954,414093.877999927,NA,433809.249099926,NA,NA,435444.205699954,4608.74599998351,436305.067899986,4608.77019993495,435996.413999936,209534.480599919,NA,413973.685799981,5388.68069997989,NA,NA,154482.019999996,9,11136.9666999672,11,1,-10
83.3333333333333,96,967.234749996957,"l","accuracy","ju1996be","1","b","l","1","0","0",74,5,700,"Tue Mar 28 11:12:17 2023",1,"eher leicht","accuracy","Experiment.osexp","Bild_s3_b_9.png",1080,"be",1996,"ju","orangene","C:/Users/steff/Documents/Universität/Master Psychologie/SS 2022/Masterarbeit/Experiment/subject-6.csv",0,0,0,"a",15,25,"l","l",469.850299996324,469.850299996324,6,NA,438038.974100025,NA,414011.200499954,413939.370799926,438509.562499938,437731.211200007,42750.2333000302,NA,NA,4608.63769997377,NA,408944.177099969,437738.047500025,437143.165000016,NA,437221.577299992,NA,414101.081399946,5406.27849998418,75168.4231000254,89715.0104999309,112278.363900026,134053.401599987,143602.447699988,414101.188799948,438509.64579999,NA,417453.640799969,421733.260000008,406427.816899959,408492.603700026,403959.67459993,436842.311699991,402141.913799918,NA,NA,NA,NA,NA,NA,414011.124099954,414093.877999927,NA,437221.499999985,NA,NA,437137.575699948,4608.74599998351,438039.167999988,4608.77019993495,437731.13249999,209534.480599919,NA,413973.685799981,5388.68069997989,NA,NA,154482.019999996,10,11606.8169999635,12,1,-10
84.6153846153846,96,943.245484619043,"l","accuracy","ju1996be","1","b","l","1","0","0",75,5,700,"Tue Mar 28 11:12:17 2023",1,"eher leicht","accuracy","Experiment.osexp","Bild_s3_b_11.png",1080,"be",1996,"ju","orangene","C:/Users/steff/Documents/Universität/Master Psychologie/SS 2022/Masterarbeit/Experiment/subject-6.csv",0,0,0,"a",20,30,"l","l",655.374300084077,655.374300084077,6,NA,439693.539100001,NA,414011.200499954,413939.370799926,440349.67799997,439385.523099918,42750.2333000302,NA,NA,4608.63769997377,NA,408944.177099969,439392.46829995,438839.77620001,NA,437221.577299992,NA,414101.081399946,5406.27849998418,75168.4231000254,89715.0104999309,112278.363900026,134053.401599987,143602.447699988,414101.188799948,440349.74929993,NA,417453.640799969,421733.260000008,406427.816899959,408492.603700026,403959.67459993,438539.012599969,402141.913799918,NA,NA,NA,NA,NA,NA,414011.124099954,414093.877999927,NA,437221.499999985,NA,NA,438834.258500021,4608.74599998351,439693.638799945,4608.77019993495,439385.441699997,209534.480599919,NA,413973.685799981,5388.68069997989,NA,NA,154482.019999996,11,12262.1913000476,13,1,-10
85.7142857142857,96,916.031271427138,"l","accuracy","ju1996be","1","o","a","1","0","0",76,5,700,"Tue Mar 28 11:12:17 2023",2,"eher schwer","accuracy","Experiment.osexp","Bild_s2_o_13.png",1080,"be",1996,"ju","orangene","C:/Users/steff/Documents/Universität/Master Psychologie/SS 2022/Masterarbeit/Experiment/subject-6.csv",0,0,0,"a",25,35,"a","a",562.246499932371,562.246499932371,6,NA,441562.663699966,NA,414011.200499954,413939.370799926,442125.866499962,441254.386599991,42750.2333000302,NA,NA,4608.63769997377,NA,408944.177099969,441261.682900018,440668.991199927,NA,440744.089499931,NA,414101.081399946,5406.27849998418,75168.4231000254,89715.0104999309,112278.363900026,134053.401599987,143602.447699988,414101.188799948,442125.940299942,NA,417453.640799969,421733.260000008,406427.816899959,408492.603700026,403959.67459993,440367.847100017,402141.913799918,NA,NA,NA,NA,NA,NA,414011.124099954,414093.877999927,NA,440744.010300026,NA,NA,440663.411399932,4608.74599998351,441562.763200025,4608.77019993495,441254.310699995,209534.480599919,NA,413973.685799981,5388.68069997989,NA,NA,154482.019999996,12,12824.4377999799,14,1,-10
86.6666666666667,96,900.093820000378,"l","accuracy","ju1996be","1","o","a","1","0","0",77,5,700,"Tue Mar 28 11:12:17 2023",2,"eher schwer","accuracy","Experiment.osexp","Bild_s2_o_12.png",1080,"be",1996,"ju","orangene","C:/Users/steff/Documents/Universität/Master Psychologie/SS 2022/Masterarbeit/Experiment/subject-6.csv",0,0,0,"a",30,40,"a","a",676.969500025734,676.969500025734,6,NA,443303.854099941,NA,414011.200499954,413939.370799926,443981.732000015,442995.969399926,42750.2333000302,NA,NA,4608.63769997377,NA,408944.177099969,443002.905600006,442442.751099938,NA,440744.089499931,NA,414101.081399946,5406.27849998418,75168.4231000254,89715.0104999309,112278.363900026,134053.401599987,143602.447699988,414101.188799948,443981.813199935,NA,417453.640799969,421733.260000008,406427.816899959,408492.603700026,403959.67459993,442141.59949997,402141.913799918,NA,NA,NA,NA,NA,NA,414011.124099954,414093.877999927,NA,440744.010300026,NA,NA,442437.124599935,4608.74599998351,443304.041899974,4608.77019993495,442995.888800011,209534.480599919,NA,413973.685799981,5388.68069997989,NA,NA,154482.019999996,13,13501.4073000057,15,1,-10
87.5,96,887.318774999585,"l","accuracy","ju1996be","1","b","l","1","0","0",78,5,700,"Tue Mar 28 11:12:17 2023",3,"sehr schwer","accuracy","Experiment.osexp","Bild_s1_b_22.png",1080,"be",1996,"ju","orangene","C:/Users/steff/Documents/Universität/Master Psychologie/SS 2022/Masterarbeit/Experiment/subject-6.csv",0,0,0,"a",35,45,"l","l",695.693099987693,695.693099987693,6,NA,445205.213499954,NA,414011.200499954,413939.370799926,445901.649900014,444897.135599982,42750.2333000302,NA,NA,4608.63769997377,NA,408944.177099969,444904.145799926,444309.065099922,NA,444383.329899982,NA,414101.081399946,5406.27849998418,75168.4231000254,89715.0104999309,112278.363900026,134053.401599987,143602.447699988,414101.188799948,445901.722599985,NA,417453.640799969,421733.260000008,406427.816899959,408492.603700026,403959.67459993,444008.571799961,402141.913799918,NA,NA,NA,NA,NA,NA,414011.124099954,414093.877999927,NA,444383.254699991,NA,NA,444303.534799954,4608.74599998351,445205.315000028,4608.77019993495,444897.056099959,209534.480599919,NA,413973.685799981,5388.68069997989,NA,NA,154482.019999996,14,14197.1003999934,16,1,-10
88.2352941176471,96,888.990447062122,"l","accuracy","ju1996be","1","o","a","1","0","0",79,5,700,"Tue Mar 28 11:12:17 2023",3,"sehr schwer","accuracy","Experiment.osexp","Bild_s1_o_22.png",1080,"be",1996,"ju","orangene","C:/Users/steff/Documents/Universität/Master Psychologie/SS 2022/Masterarbeit/Experiment/subject-6.csv",0,0,0,"a",40,50,"a","a",915.737200062722,915.737200062722,6,NA,447113.09280002,NA,414011.200499954,413939.370799926,448029.824799975,446804.578399984,42750.2333000302,NA,NA,4608.63769997377,NA,408944.177099969,446811.915899976,446259.79339995,NA,444383.329899982,NA,414101.081399946,5406.27849998418,75168.4231000254,89715.0104999309,112278.363900026,134053.401599987,143602.447699988,414101.188799948,448029.902199982,NA,417453.640799969,421733.260000008,406427.816899959,408492.603700026,403959.67459993,445958.595399978,402141.913799918,NA,NA,NA,NA,NA,NA,414011.124099954,414093.877999927,NA,444383.254699991,NA,NA,446253.980799927,4608.74599998351,447113.23389993,4608.77019993495,446804.488900001,209534.480599919,NA,413973.685799981,5388.68069997989,NA,NA,154482.019999996,15,15112.8376000561,17,1,-10
100,96,2093.92885002308,"l","speed","ju1996be","1","o","a","0","0","1",80,6,700,"Tue Mar 28 11:12:17 2023",3,"sehr schwer","accuracy","Experiment.osexp","Bild_s1_o_23.png",1080,"be",1996,"ju","orangene","C:/Users/steff/Documents/Universität/Master Psychologie/SS 2022/Masterarbeit/Experiment/subject-6.csv",0,0,0,"a",30,-10,"a","a",847.336600068957,847.336600068957,6,NA,457805.553399958,NA,414011.200499954,453503.796199919,458653.803099995,457497.168899979,42750.2333000302,NA,NA,4608.63769997377,NA,448508.412800031,457504.288599943,448356.26489995,NA,456974.744700012,NA,453632.356400019,5406.27849998418,75168.4231000254,89715.0104999309,112278.363900026,134053.401599987,143602.447699988,453632.486799965,458653.905299958,NA,456973.663599929,421733.260000008,406427.816899959,408492.603700026,403959.67459993,448055.358699989,402141.913799918,NA,NA,NA,NA,NA,NA,414011.124099954,453625.062700012,NA,456974.695599987,NA,NA,448350.78670003,4608.74599998351,457805.660999962,4608.77019993495,457496.97420001,209534.480599919,NA,413973.685799981,5388.68069997989,NA,NA,154482.019999996,2,4187.85770004615,2,1,40
100,96,1640.19826667694,"l","speed","ju1996be","1","b","l","0","0","1",81,6,700,"Tue Mar 28 11:12:17 2023",3,"sehr schwer","accuracy","Experiment.osexp","Bild_s1_b_5.png",1080,"be",1996,"ju","orangene","C:/Users/steff/Documents/Universität/Master Psychologie/SS 2022/Masterarbeit/Experiment/subject-6.csv",0,0,0,"a",20,-20,"l","l",732.737099984661,732.737099984661,6,NA,459824.071199982,NA,414011.200499954,453503.796199919,460557.56649992,459515.686900006,42750.2333000302,NA,NA,4608.63769997377,NA,448508.412800031,459522.965800017,458968.161299941,NA,456974.744700012,NA,453632.356400019,5406.27849998418,75168.4231000254,89715.0104999309,112278.363900026,134053.401599987,143602.447699988,453632.486799965,460557.681999984,NA,456973.663599929,421733.260000008,458667.542599957,408492.603700026,403959.67459993,448055.358699989,402141.913799918,NA,NA,NA,NA,NA,NA,414011.124099954,453625.062700012,NA,456974.695599987,NA,NA,458962.796599953,4608.74599998351,459824.267499964,4608.77019993495,459515.60579997,209534.480599919,NA,413973.685799981,5388.68069997989,NA,NA,154482.019999996,3,4920.59480003081,3,1,40
100,96,1397.45265000965,"l","speed","ju1996be","1","b","l","0","1","0",82,6,700,"Tue Mar 28 11:12:17 2023",2,"eher schwer","accuracy","Experiment.osexp","Bild_s2_b_1.png",1080,"be",1996,"ju","orangene","C:/Users/steff/Documents/Universität/Master Psychologie/SS 2022/Masterarbeit/Experiment/subject-6.csv",0,0,0,"a",25,-15,"l","l",669.215800007805,669.215800007805,6,NA,461775.542299962,NA,414011.200499954,453503.796199919,462445.577499922,461466.835599975,42750.2333000302,NA,NA,4608.63769997377,NA,448508.412800031,461474.172499962,460885.584100033,NA,460960.969200009,NA,453632.356400019,5406.27849998418,75168.4231000254,89715.0104999309,112278.363900026,134053.401599987,143602.447699988,453632.486799965,462445.658599958,NA,456973.663599929,421733.260000008,460584.794900031,408492.603700026,403959.67459993,448055.358699989,402141.913799918,NA,NA,NA,NA,NA,NA,414011.124099954,453625.062700012,NA,460960.88899998,NA,NA,460880.072999978,4608.74599998351,461775.774299982,4608.77019993495,461466.75719996,209534.480599919,NA,413973.685799981,5388.68069997989,NA,NA,154482.019999996,4,5589.81060003862,4,1,40
100,96,1324.09828000236,"l","speed","ju1996be","1","o","a","0","0","1",83,6,700,"Tue Mar 28 11:12:17 2023",2,"eher schwer","accuracy","Experiment.osexp","Bild_s2_o_3.png",1080,"be",1996,"ju","orangene","C:/Users/steff/Documents/Universität/Master Psychologie/SS 2022/Masterarbeit/Experiment/subject-6.csv",0,0,0,"a",15,-25,"a","a",1030.6807999732,1030.6807999732,6,NA,463622.180999955,NA,414011.200499954,453503.796199919,464653.611799935,463313.721399987,42750.2333000302,NA,NA,4608.63769997377,NA,448508.412800031,463321.168499999,462767.384100007,NA,460960.969200009,NA,453632.356400019,5406.27849998418,75168.4231000254,89715.0104999309,112278.363900026,134053.401599987,143602.447699988,453632.486799965,464653.715600027,NA,456973.663599929,421733.260000008,460584.794900031,408492.603700026,403959.67459993,448055.358699989,462467.005699989,NA,NA,NA,NA,NA,NA,414011.124099954,453625.062700012,NA,460960.88899998,NA,NA,462761.895500007,4608.74599998351,463622.305599973,4608.77019993495,463313.642399968,209534.480599919,NA,413973.685799981,5388.68069997989,NA,NA,154482.019999996,5,6620.49140001182,5,1,40
100,96,1271.49966667639,"l","speed","ju1996be","1","o","a","0","0","1",84,6,700,"Tue Mar 28 11:12:17 2023",1,"eher leicht","accuracy","Experiment.osexp","Bild_s3_o_25.png",1080,"be",1996,"ju","orangene","C:/Users/steff/Documents/Universität/Master Psychologie/SS 2022/Masterarbeit/Experiment/subject-6.csv",0,0,0,"a",5,-35,"a","a",1008.50660004653,1008.50660004653,6,NA,465868.43859998,NA,414011.200499954,453503.796199919,466877.646100009,465559.2741,42750.2333000302,NA,NA,4608.63769997377,NA,448508.412800031,465566.375799943,464982.122099958,NA,465056.069699931,NA,453632.356400019,5406.27849998418,75168.4231000254,89715.0104999309,112278.363900026,134053.401599987,143602.447699988,453632.486799965,466877.744299942,NA,456973.663599929,421733.260000008,464681.119799963,408492.603700026,403959.67459993,448055.358699989,462467.005699989,NA,NA,NA,NA,NA,NA,414011.124099954,453625.062700012,NA,465055.995499948,NA,NA,464976.550400024,4608.74599998351,465868.522699922,4608.77019993495,465559.192299959,209534.480599919,NA,413973.685799981,5388.68069997989,NA,NA,154482.019999996,6,7628.99800005835,6,1,40
100,96,1181.85605714098,"l","speed","ju1996be","1","o","a","0","1","0",85,6,700,"Tue Mar 28 11:12:17 2023",1,"eher leicht","accuracy","Experiment.osexp","Bild_s3_o_18.png",1080,"be",1996,"ju","orangene","C:/Users/steff/Documents/Universität/Master Psychologie/SS 2022/Masterarbeit/Experiment/subject-6.csv",0,0,0,"a",10,-30,"a","a",643.994399928488,643.994399928488,6,NA,468056.897999952,NA,414011.200499954,453503.796199919,468701.831799932,467748.461699928,42750.2333000302,NA,NA,4608.63769997377,NA,448508.412800031,467755.694199936,467205.197799951,NA,465056.069699931,NA,453632.356400019,5406.27849998418,75168.4231000254,89715.0104999309,112278.363900026,134053.401599987,143602.447699988,453632.486799965,468701.91589999,NA,456973.663599929,421733.260000008,466904.634899925,408492.603700026,403959.67459993,448055.358699989,462467.005699989,NA,NA,NA,NA,NA,NA,414011.124099954,453625.062700012,NA,465055.995499948,NA,NA,467199.784899945,4608.74599998351,468056.996400002,4608.77019993495,467748.38200002,209534.480599919,NA,413973.685799981,5388.68069997989,NA,NA,154482.019999996,7,8272.99239998683,7,1,40
100,96,1109.8514375044,"l","speed","ju1996be","1","o","a","0","1","0",86,6,700,"Tue Mar 28 11:12:17 2023",0,"sehr leicht","accuracy","Experiment.osexp","Bild_s4_o_2.png",1080,"be",1996,"ju","orangene","C:/Users/steff/Documents/Universität/Master Psychologie/SS 2022/Masterarbeit/Experiment/subject-6.csv",0,0,0,"a",15,-25,"a","a",605.819100048393,605.819100048393,6,NA,469918.971700012,NA,414011.200499954,453503.796199919,470525.678899954,469610.715899966,42750.2333000302,NA,NA,4608.63769997377,NA,448508.412800031,469617.832900025,469032.653499977,NA,469106.303600012,NA,453632.356400019,5406.27849998418,75168.4231000254,89715.0104999309,112278.363900026,134053.401599987,143602.447699988,453632.486799965,470525.75749997,NA,456973.663599929,421733.260000008,466904.634899925,408492.603700026,403959.67459993,448055.358699989,468731.958299992,NA,NA,NA,NA,NA,NA,414011.124099954,453625.062700012,NA,469106.225199997,NA,NA,469027.226199978,4608.74599998351,469919.174599927,4608.77019993495,469610.637499951,209534.480599919,NA,413973.685799981,5388.68069997989,NA,NA,154482.019999996,8,8878.81150003523,8,1,40
100,96,1048.44195556103,"l","speed","ju1996be","1","o","a","0","1","0",87,6,700,"Tue Mar 28 11:12:17 2023",0,"sehr leicht","accuracy","Experiment.osexp","Bild_s4_o_23.png",1080,"be",1996,"ju","orangene","C:/Users/steff/Documents/Universität/Master Psychologie/SS 2022/Masterarbeit/Experiment/subject-6.csv",0,0,0,"a",20,-20,"a","a",557.166100014001,557.166100014001,6,NA,471695.711900014,NA,414011.200499954,453503.796199919,472253.704399918,471387.523400015,42750.2333000302,NA,NA,4608.63769997377,NA,448508.412800031,471394.262499991,470840.744499932,NA,469106.303600012,NA,453632.356400019,5406.27849998418,75168.4231000254,89715.0104999309,112278.363900026,134053.401599987,143602.447699988,453632.486799965,472253.785199951,NA,456973.663599929,421733.260000008,466904.634899925,408492.603700026,403959.67459993,448055.358699989,470539.86020002,NA,NA,NA,NA,NA,NA,414011.124099954,453625.062700012,NA,469106.225199997,NA,NA,470835.183599964,4608.74599998351,471695.817200001,4608.77019993495,471387.44630001,209534.480599919,NA,413973.685799981,5388.68069997989,NA,NA,154482.019999996,9,9435.97760004923,9,1,40
100,96,998.763810005039,"l","speed","ju1996be","1","o","a","0","1","0",88,6,700,"Tue Mar 28 11:12:17 2023",0,"sehr leicht","accuracy","Experiment.osexp","Bild_s4_o_7.png",1080,"be",1996,"ju","orangene","C:/Users/steff/Documents/Universität/Master Psychologie/SS 2022/Masterarbeit/Experiment/subject-6.csv",0,0,0,"a",25,-15,"a","a",551.660500001162,551.660500001162,6,NA,473477.208400029,NA,414011.200499954,453503.796199919,474029.834499932,473168.507199967,42750.2333000302,NA,NA,4608.63769997377,NA,448508.412800031,473175.748199923,472569.25099995,NA,472652.208999963,NA,453632.356400019,5406.27849998418,75168.4231000254,89715.0104999309,112278.363900026,134053.401599987,143602.447699988,453632.486799965,474029.915099964,NA,456973.663599929,421733.260000008,466904.634899925,408492.603700026,403959.67459993,448055.358699989,472268.483299995,NA,NA,NA,NA,NA,NA,414011.124099954,453625.062700012,NA,472652.132599964,NA,NA,472563.52560001,4608.74599998351,473477.31560003,4608.77019993495,473168.430399965,209534.480599919,NA,413973.685799981,5388.68069997989,NA,NA,154482.019999996,10,9987.63810005039,10,1,40
