"accuracy","anzahl_gruppen","avg_rt","blauetaste","block","code","correct","correct_colour","correct_response","correct1","correct2","correct3","count_bildstimulus_3_1","count_block","cutoff","datetime","difficulty","difficulty_f","erstebedingung","experiment_file","filename","height","id_geburtsort","id_jahr","id_vater","linketaste","logfile","loose1","loose2","loose3","orangenetaste","punkte1","punkteimblock","response","response_tasteresponse_3_1","response_time","response_time_tasteresponse_3_1","subject_nr","time_bildershuffle","time_bildstimulus_3_1","time_block","time_block_tut","time_blockwerte_zuruecksetzten","time_cutoff_werte_und_punkte_3_1","time_definecorrectcolour_3_1","time_eingabemaske_kuerzel_python","time_ende_experimentierungsphase","time_ende_tutorial_1","time_experiment","time_feedback_serie","time_feedback_tutorial","time_fixationcross_3_1","time_grauesbild_3_1","time_gruppe_block","time_gruppe_tutorial","time_instruktionen_block","time_instruktionen_tutorial_1","time_introduction_1","time_introduction_2_1","time_introduction_3_punkte","time_introduction_3_speed","time_introduction_4_accuracy","time_introduction_5_feedback","time_leertaste_fuer_naechsten_bildschirm","time_logger_3_1","time_loop_block","time_loop_block_tut","time_minifeedbacknegativ_acc","time_minifeedbacknegativ_speed_slow","time_minifeedbacknegativ_speed_slowandwrong","time_minifeedbacknegativ_speed_wrong","time_minifeedbackpositiv_acc","time_minifeedbackpositiv_speed","time_new_inline_script","time_pause_zwischen_serie_1","time_pause_zwischen_serie_2","time_reset_feedback","time_reset_feedback_1","time_sequenz_block","time_sequenz_block_tut","time_sequenz_block_tut_1","time_sequenz_gruppe","time_sequenz_gruppe_tut","time_sequenz_serie","time_serie","time_set_to_zero","time_start","time_tasteresponse_3_1","time_testloopprepareglitchtutorial","time_trial_3_1","time_tutorial","time_tutorial_ende","time_tutorial_wiederholungscheck","time_vorgeplaenkel","time_warnhinweis_3sek","time_warnhinweis_5sek","time_warnung_tutorial_1","total_correct","total_response_time","total_responses","tutorial","tutorialpunkte"
88.8888888888889,96,93460.9858000056,"a","accuracy","an2000he","0","o","l","0","0","0",0,1,700,"Tue Mar 21 10:59:10 2023",3,"sehr schwer","speed","Experiment.osexp","Bild_s1_o_11.png",1080,"he",2000,"an","blaue","C:/Users/steff/Documents/Universität/Master Psychologie/SS 2022/Masterarbeit/Experiment/subject-2.csv",1,0,0,"l",-10,-10,"a","a",1569.15759999538,1569.15759999538,2,160670.565999986,161532.696500013,NA,154985.799100017,NA,163102.691000036,161224.708800029,70751.1887000292,NA,NA,3998.93270002212,NA,NA,161231.837200001,NA,NA,160671.569700004,NA,155080.060200009,4728.07170002488,92752.7422999847,103411.705300037,115943.036300014,132005.966100027,140242.703200027,155080.239700037,163102.762399998,NA,160670.589099987,NA,NA,NA,NA,NA,NA,NA,NA,NA,NA,NA,NA,154985.614800011,155072.810099984,NA,160671.524100006,NA,NA,NA,3999.47550002253,161532.854099991,3999.50020003598,161224.507600011,154984.818900004,NA,NA,4711.00780001143,NA,NA,149970.26229999,8,841148.87220005,9,1,0
90,96,84272.1452600032,"a","accuracy","an2000he","1","b","a","1","0","0",1,1,700,"Tue Mar 21 10:59:10 2023",3,"sehr schwer","speed","Experiment.osexp","Bild_s1_b_7.png",1080,"he",2000,"an","blaue","C:/Users/steff/Documents/Universität/Master Psychologie/SS 2022/Masterarbeit/Experiment/subject-2.csv",0,0,0,"l",-5,-5,"a","a",1572.58039998123,1572.58039998123,2,160670.565999986,164281.230200024,NA,154985.799100017,NA,165854.588599992,163972.731999995,70751.1887000292,NA,NA,3998.93270002212,NA,NA,163979.817499989,163434.171900037,NA,160671.569700004,NA,155080.060200009,4728.07170002488,92752.7422999847,103411.705300037,115943.036300014,132005.966100027,140242.703200027,155080.239700037,165854.660100013,NA,160670.589099987,163132.377200003,NA,NA,NA,NA,NA,NA,NA,NA,NA,NA,NA,154985.614800011,155072.810099984,NA,160671.524100006,NA,NA,163428.50129999,3999.47550002253,164281.430900039,3999.50020003598,163972.652800032,154984.818900004,NA,NA,4711.00780001143,NA,NA,149970.26229999,9,842721.452600032,10,1,0
90.9090909090909,96,76681.8321272784,"a","accuracy","an2000he","1","o","l","1","0","0",2,1,700,"Tue Mar 21 10:59:10 2023",2,"eher schwer","speed","Experiment.osexp","Bild_s2_o_19.png",1080,"he",2000,"an","blaue","C:/Users/steff/Documents/Universität/Master Psychologie/SS 2022/Masterarbeit/Experiment/subject-2.csv",0,0,0,"l",0,0,"l","l",778.700800030492,778.700800030492,2,160670.565999986,167059.208200022,NA,154985.799100017,NA,167838.650799997,166751.374199986,70751.1887000292,NA,NA,3998.93270002212,NA,NA,166758.094899997,166182.596600032,NA,166255.742500012,NA,155080.060200009,4728.07170002488,92752.7422999847,103411.705300037,115943.036300014,132005.966100027,140242.703200027,155080.239700037,167838.724400033,NA,160670.589099987,163132.377200003,NA,NA,NA,165881.917099992,NA,NA,NA,NA,NA,NA,NA,154985.614800011,155072.810099984,NA,166255.645300029,NA,NA,166177.174900018,3999.47550002253,167059.318799991,3999.50020003598,166751.296200033,154984.818900004,NA,NA,4711.00780001143,NA,NA,149970.26229999,10,843500.153400062,11,1,0
91.6666666666667,96,70370.1691583362,"a","accuracy","an2000he","1","o","l","1","0","0",3,1,700,"Tue Mar 21 10:59:10 2023",2,"eher schwer","speed","Experiment.osexp","Bild_s2_o_14.png",1080,"he",2000,"an","blaue","C:/Users/steff/Documents/Universität/Master Psychologie/SS 2022/Masterarbeit/Experiment/subject-2.csv",0,0,0,"l",5,5,"l","l",941.87649997184,941.87649997184,2,160670.565999986,169008.006000018,NA,154985.799100017,NA,169950.654699991,168700.157499989,70751.1887000292,NA,NA,3998.93270002212,NA,NA,168707.256700029,168158.218200027,NA,166255.742500012,NA,155080.060200009,4728.07170002488,92752.7422999847,103411.705300037,115943.036300014,132005.966100027,140242.703200027,155080.239700037,169950.725000002,NA,160670.589099987,163132.377200003,NA,NA,NA,167854.953100032,NA,NA,NA,NA,NA,NA,NA,154985.614800011,155072.810099984,NA,166255.645300029,NA,NA,168150.166200008,3999.47550002253,169008.17570003,3999.50020003598,168700.07760002,154984.818900004,NA,NA,4711.00780001143,NA,NA,149970.26229999,11,844442.029900034,12,1,0
84.6153846153846,96,65047.2929769267,"a","accuracy","an2000he","0","o","l","0","0","0",4,1,700,"Tue Mar 21 10:59:10 2023",1,"eher leicht","speed","Experiment.osexp","Bild_s3_o_23.png",1080,"he",2000,"an","blaue","C:/Users/steff/Documents/Universität/Master Psychologie/SS 2022/Masterarbeit/Experiment/subject-2.csv",1,0,0,"l",-5,-5,"a","a",1172.77880001348,1172.77880001348,2,160670.565999986,171177.1267,NA,154985.799100017,NA,172350.523400004,170869.141100033,70751.1887000292,NA,NA,3998.93270002212,NA,NA,170876.015499991,170303.610200004,NA,170374.363399984,NA,155080.060200009,4728.07170002488,92752.7422999847,103411.705300037,115943.036300014,132005.966100027,140242.703200027,155080.239700037,172350.594400021,NA,160670.589099987,163132.377200003,NA,NA,NA,170002.630100003,NA,NA,NA,NA,NA,NA,NA,154985.614800011,155072.810099984,NA,170374.296499998,NA,NA,170298.018600035,3999.47550002253,171177.228200017,3999.50020003598,170869.061100006,154984.818900004,NA,NA,4711.00780001143,NA,NA,149970.26229999,11,845614.808700047,13,1,0
85.7142857142857,96,60444.9496000016,"a","accuracy","an2000he","1","o","l","1","0","0",5,1,700,"Tue Mar 21 10:59:10 2023",1,"eher leicht","speed","Experiment.osexp","Bild_s3_o_6.png",1080,"he",2000,"an","blaue","C:/Users/steff/Documents/Universität/Master Psychologie/SS 2022/Masterarbeit/Experiment/subject-2.csv",0,0,0,"l",0,0,"l","l",614.485699974466,614.485699974466,2,160670.565999986,173527.44580002,NA,154985.799100017,NA,174142.770200036,173219.75779999,70751.1887000292,NA,NA,3998.93270002212,NA,NA,173226.93470004,172676.874099998,NA,170374.363399984,NA,155080.060200009,4728.07170002488,92752.7422999847,103411.705300037,115943.036300014,132005.966100027,140242.703200027,155080.239700037,174142.85080001,NA,160670.589099987,172376.423000009,NA,NA,NA,170002.630100003,NA,NA,NA,NA,NA,NA,NA,154985.614800011,155072.810099984,NA,170374.296499998,NA,NA,172671.466500033,3999.47550002253,173527.532100037,3999.50020003598,173219.674499996,154984.818900004,NA,NA,4711.00780001143,NA,NA,149970.26229999,12,846229.294400022,14,1,0
86.6666666666667,96,56471.2549533346,"a","accuracy","an2000he","1","b","a","1","0","0",6,1,700,"Tue Mar 21 10:59:10 2023",0,"sehr leicht","speed","Experiment.osexp","Bild_s4_b_15.png",1080,"he",2000,"an","blaue","C:/Users/steff/Documents/Universität/Master Psychologie/SS 2022/Masterarbeit/Experiment/subject-2.csv",0,0,0,"l",5,5,"a","a",839.529899996705,839.529899996705,2,160670.565999986,175366.393300006,NA,154985.799100017,NA,176206.588300003,175058.498900034,70751.1887000292,NA,NA,3998.93270002212,NA,NA,175065.89670002,174467.725900002,NA,174538.947399997,NA,155080.060200009,4728.07170002488,92752.7422999847,103411.705300037,115943.036300014,132005.966100027,140242.703200027,155080.239700037,176206.660300028,NA,160670.589099987,172376.423000009,NA,NA,NA,174166.963400028,NA,NA,NA,NA,NA,NA,NA,154985.614800011,155072.810099984,NA,174538.873800018,NA,NA,174462.378700031,3999.47550002253,175366.477200005,3999.50020003598,175058.313200017,154984.818900004,NA,NA,4711.00780001143,NA,NA,149970.26229999,13,847068.824300019,15,1,0
87.5,96,52994.3388374995,"a","accuracy","an2000he","1","b","a","1","0","0",7,1,700,"Tue Mar 21 10:59:10 2023",0,"sehr leicht","speed","Experiment.osexp","Bild_s4_b_23.png",1080,"he",2000,"an","blaue","C:/Users/steff/Documents/Universität/Master Psychologie/SS 2022/Masterarbeit/Experiment/subject-2.csv",0,0,0,"l",10,10,"a","a",840.59709997382,840.59709997382,2,160670.565999986,177381.21610001,NA,154985.799100017,NA,178222.587299999,177073.273600021,70751.1887000292,NA,NA,3998.93270002212,NA,NA,177080.429300026,176537.523100036,NA,174538.947399997,NA,155080.060200009,4728.07170002488,92752.7422999847,103411.705300037,115943.036300014,132005.966100027,140242.703200027,155080.239700037,178222.658300016,NA,160670.589099987,172376.423000009,NA,NA,NA,176236.874299997,NA,NA,NA,NA,NA,NA,NA,154985.614800011,155072.810099984,NA,174538.873800018,NA,NA,176532.112799992,3999.47550002253,177381.410400034,3999.50020003598,177073.194700002,154984.818900004,NA,NA,4711.00780001143,NA,NA,149970.26229999,14,847909.421399992,16,1,0
88.2352941176471,96,49927.8851235285,"a","accuracy","an2000he","1","b","a","1","0","0",8,1,700,"Tue Mar 21 10:59:10 2023",0,"sehr leicht","speed","Experiment.osexp","Bild_s4_b_17.png",1080,"he",2000,"an","blaue","C:/Users/steff/Documents/Universität/Master Psychologie/SS 2022/Masterarbeit/Experiment/subject-2.csv",0,0,0,"l",15,15,"a","a",864.625699992757,864.625699992757,2,160670.565999986,179421.118099999,NA,154985.799100017,NA,180286.702200014,179113.140200032,70751.1887000292,NA,NA,3998.93270002212,NA,NA,179120.465399988,178538.813100022,NA,178610.813800013,NA,155080.060200009,4728.07170002488,92752.7422999847,103411.705300037,115943.036300014,132005.966100027,140242.703200027,155080.239700037,180286.774000037,NA,160670.589099987,172376.423000009,NA,NA,NA,178238.380299998,NA,NA,NA,NA,NA,NA,NA,154985.614800011,155072.810099984,NA,178610.741899989,NA,NA,178533.482600003,3999.47550002253,179421.335100022,3999.50020003598,179113.061700016,154984.818900004,NA,NA,4711.00780001143,NA,NA,149970.26229999,15,848774.047099985,17,1,0
88.8888888888889,96,47189.7057944443,"a","accuracy","an2000he","1","o","l","1","0","0",9,1,700,"Tue Mar 21 10:59:10 2023",0,"sehr leicht","speed","Experiment.osexp","Bild_s4_o_14.png",1080,"he",2000,"an","blaue","C:/Users/steff/Documents/Universität/Master Psychologie/SS 2022/Masterarbeit/Experiment/subject-2.csv",0,0,0,"l",20,20,"l","l",640.657200012356,640.657200012356,2,160670.565999986,181453.259900038,NA,154985.799100017,NA,182094.646900019,181145.442800014,70751.1887000292,NA,NA,3998.93270002212,NA,NA,181152.395299985,180606.087699998,NA,178610.813800013,NA,155080.060200009,4728.07170002488,92752.7422999847,103411.705300037,115943.036300014,132005.966100027,140242.703200027,155080.239700037,182094.716800028,NA,160670.589099987,172376.423000009,NA,NA,NA,180304.483100015,NA,NA,NA,NA,NA,NA,NA,154985.614800011,155072.810099984,NA,178610.741899989,NA,NA,180600.697999995,3999.47550002253,181453.349800024,3999.50020003598,181145.364600001,154984.818900004,NA,NA,4711.00780001143,NA,NA,149970.26229999,16,849414.704299998,18,1,0
89.4736842105263,96,44737.2238105255,"a","accuracy","an2000he","1","o","l","1","0","0",10,1,700,"Tue Mar 21 10:59:10 2023",1,"eher leicht","speed","Experiment.osexp","Bild_s3_o_25.png",1080,"he",2000,"an","blaue","C:/Users/steff/Documents/Universität/Master Psychologie/SS 2022/Masterarbeit/Experiment/subject-2.csv",0,0,0,"l",25,25,"l","l",592.548099986743,592.548099986743,2,160670.565999986,183309.221600008,NA,154985.799100017,NA,183902.67640003,183000.778199988,70751.1887000292,NA,NA,3998.93270002212,NA,NA,183008.049099997,182423.949000018,NA,182497.254199989,NA,155080.060200009,4728.07170002488,92752.7422999847,103411.705300037,115943.036300014,132005.966100027,140242.703200027,155080.239700037,183902.756199997,NA,160670.589099987,172376.423000009,NA,NA,NA,182123.293499986,NA,NA,NA,NA,NA,NA,NA,154985.614800011,155072.810099984,NA,182497.159700026,NA,NA,182418.55230002,3999.47550002253,183309.424000036,3999.50020003598,183000.699200027,154984.818900004,NA,NA,4711.00780001143,NA,NA,149970.26229999,17,850007.252399984,19,1,0
90,96,42537.4724549998,"a","accuracy","an2000he","1","b","a","1","0","0",11,1,700,"Tue Mar 21 10:59:10 2023",1,"eher leicht","speed","Experiment.osexp","Bild_s3_b_13.png",1080,"he",2000,"an","blaue","C:/Users/steff/Documents/Universität/Master Psychologie/SS 2022/Masterarbeit/Experiment/subject-2.csv",0,0,0,"l",30,30,"a","a",742.196700011846,742.196700011846,2,160670.565999986,185111.614299996,NA,154985.799100017,NA,185854.763599986,184803.673800023,70751.1887000292,NA,NA,3998.93270002212,NA,NA,184810.873500013,184227.834200021,NA,182497.254199989,NA,155080.060200009,4728.07170002488,92752.7422999847,103411.705300037,115943.036300014,132005.966100027,140242.703200027,155080.239700037,185854.850100004,NA,160670.589099987,172376.423000009,NA,NA,NA,183927.146900038,NA,NA,NA,NA,NA,NA,NA,154985.614800011,155072.810099984,NA,182497.159700026,NA,NA,184222.26270003,3999.47550002253,185111.784200009,3999.50020003598,184803.59309999,154984.818900004,NA,NA,4711.00780001143,NA,NA,149970.26229999,18,850749.449099996,20,1,0
90.4761904761905,96,40542.2314142869,"a","accuracy","an2000he","1","o","l","1","0","0",12,1,700,"Tue Mar 21 10:59:10 2023",2,"eher schwer","speed","Experiment.osexp","Bild_s2_o_4.png",1080,"he",2000,"an","blaue","C:/Users/steff/Documents/Universität/Master Psychologie/SS 2022/Masterarbeit/Experiment/subject-2.csv",0,0,0,"l",35,35,"l","l",637.410600029398,637.410600029398,2,160670.565999986,187072.413299989,NA,154985.799100017,NA,187710.624800005,186764.468100038,70751.1887000292,NA,NA,3998.93270002212,NA,NA,186771.732399997,186175.736600009,NA,186253.339699993,NA,155080.060200009,4728.07170002488,92752.7422999847,103411.705300037,115943.036300014,132005.966100027,140242.703200027,155080.239700037,187710.69550002,NA,160670.589099987,172376.423000009,NA,NA,NA,185874.81280003,NA,NA,NA,NA,NA,NA,NA,154985.614800011,155072.810099984,NA,186253.264800005,NA,NA,186170.345499995,3999.47550002253,187072.590600001,3999.50020003598,186764.388300013,154984.818900004,NA,NA,4711.00780001143,NA,NA,149970.26229999,19,851386.859700026,21,1,0
90.9090909090909,96,38750.0434909095,"a","accuracy","an2000he","1","o","l","1","0","0",13,1,700,"Tue Mar 21 10:59:10 2023",2,"eher schwer","speed","Experiment.osexp","Bild_s2_o_5.png",1080,"he",2000,"an","blaue","C:/Users/steff/Documents/Universität/Master Psychologie/SS 2022/Masterarbeit/Experiment/subject-2.csv",0,0,0,"l",40,40,"l","l",1114.09709998406,1114.09709998406,2,160670.565999986,188883.6763,NA,154985.799100017,NA,189998.632500006,188575.876899995,70751.1887000292,NA,NA,3998.93270002212,NA,NA,188582.936000021,188040.840200032,NA,186253.339699993,NA,155080.060200009,4728.07170002488,92752.7422999847,103411.705300037,115943.036300014,132005.966100027,140242.703200027,155080.239700037,189998.703300022,NA,160670.589099987,172376.423000009,NA,NA,NA,187740.289100038,NA,NA,NA,NA,NA,NA,NA,154985.614800011,155072.810099984,NA,186253.264800005,NA,NA,188035.482300038,3999.47550002253,188883.884100011,3999.50020003598,188575.801900006,154984.818900004,NA,NA,4711.00780001143,NA,NA,149970.26229999,20,852500.95680001,22,1,0
86.9565217391304,96,37102.9789478255,"a","accuracy","an2000he","0","b","a","0","0","0",14,1,700,"Tue Mar 21 10:59:10 2023",3,"sehr schwer","speed","Experiment.osexp","Bild_s1_b_10.png",1080,"he",2000,"an","blaue","C:/Users/steff/Documents/Universität/Master Psychologie/SS 2022/Masterarbeit/Experiment/subject-2.csv",1,0,0,"l",30,30,"l","l",867.558999976609,867.558999976609,2,160670.565999986,191226.303500007,NA,154985.799100017,NA,192094.583900005,190918.100900017,70751.1887000292,NA,NA,3998.93270002212,NA,NA,190925.424500019,190349.41970004,NA,190422.155600041,NA,155080.060200009,4728.07170002488,92752.7422999847,103411.705300037,115943.036300014,132005.966100027,140242.703200027,155080.239700037,192094.657799986,NA,160670.589099987,172376.423000009,NA,NA,NA,190048.808699998,NA,NA,NA,NA,NA,NA,NA,154985.614800011,155072.810099984,NA,190422.081099998,NA,NA,190344.05340004,3999.47550002253,191226.403000008,3999.50020003598,190918.020799989,154984.818900004,NA,NA,4711.00780001143,NA,NA,149970.26229999,20,853368.515799986,23,1,0
83.3333333333333,96,35616.8377374997,"a","accuracy","an2000he","0","b","a","0","0","0",15,1,700,"Tue Mar 21 10:59:10 2023",3,"sehr schwer","speed","Experiment.osexp","Bild_s1_b_11.png",1080,"he",2000,"an","blaue","C:/Users/steff/Documents/Universität/Master Psychologie/SS 2022/Masterarbeit/Experiment/subject-2.csv",1,0,0,"l",20,20,"l","l",1435.58990000747,1435.58990000747,2,160670.565999986,193266.243599996,NA,154985.799100017,NA,194702.569100016,192954.62590002,70751.1887000292,NA,NA,3998.93270002212,NA,NA,192964.666099986,192409.265700029,NA,190422.155600041,NA,155080.060200009,4728.07170002488,92752.7422999847,103411.705300037,115943.036300014,132005.966100027,140242.703200027,155080.239700037,194702.642899996,NA,160670.589099987,192108.878300001,NA,NA,NA,190048.808699998,NA,NA,NA,NA,NA,NA,NA,154985.614800011,155072.810099984,NA,190422.081099998,NA,NA,192403.923300037,3999.47550002253,193266.39070001,3999.50020003598,192954.543000029,154984.818900004,NA,NA,4711.00780001143,NA,NA,149970.26229999,20,854804.105699994,24,1,0
100,96,10095.8988500061,"a","speed","an2000he","1","b","a","0","1","0",16,2,700,"Tue Mar 21 10:59:10 2023",3,"sehr schwer","speed","Experiment.osexp","Bild_s1_b_22.png",1080,"he",2000,"an","blaue","C:/Users/steff/Documents/Universität/Master Psychologie/SS 2022/Masterarbeit/Experiment/subject-2.csv",0,0,0,"l",25,5,"a","a",657.490700017661,657.490700017661,2,219822.482999996,220668.302200036,NA,154985.799100017,200166.878900025,221326.468900021,220359.905900026,70751.1887000292,NA,NA,3998.93270002212,NA,195171.655400016,220367.166700016,195028.410100029,NA,219823.479300016,NA,200287.533299997,4728.07170002488,92752.7422999847,103411.705300037,115943.036300014,132005.966100027,140242.703200027,200287.668100034,221326.5426,NA,219822.505399992,194727.821600041,NA,NA,NA,190048.808699998,NA,NA,NA,NA,NA,NA,NA,154985.614800011,200280.481000023,NA,219823.434600024,NA,NA,195023.020300025,3999.47550002253,220668.458600005,3999.50020003598,220359.713800019,154984.818900004,NA,NA,4711.00780001143,NA,NA,149970.26229999,2,20191.7977000121,2,1,20
66.6666666666667,96,6985.86693334316,"a","speed","an2000he","0","b","a","0","0","0",17,2,700,"Tue Mar 21 10:59:10 2023",3,"sehr schwer","speed","Experiment.osexp","Bild_s1_b_14.png",1080,"he",2000,"an","blaue","C:/Users/steff/Documents/Universität/Master Psychologie/SS 2022/Masterarbeit/Experiment/subject-2.csv",0,0,1,"l",15,-5,"l","l",765.803100017365,765.803100017365,2,219822.482999996,222496.063700004,NA,154985.799100017,200166.878900025,223262.508300017,222188.64430004,70751.1887000292,NA,NA,3998.93270002212,NA,195171.655400016,222195.333499985,221642.103100021,NA,219823.479300016,NA,200287.533299997,4728.07170002488,92752.7422999847,103411.705300037,115943.036300014,132005.966100027,140242.703200027,200287.668100034,223262.605099997,NA,219822.505399992,194727.821600041,NA,NA,NA,190048.808699998,221341.326199996,NA,NA,NA,NA,NA,NA,154985.614800011,200280.481000023,NA,219823.434600024,NA,NA,221636.893799994,3999.47550002253,222496.154699998,3999.50020003598,222188.563200005,154984.818900004,NA,NA,4711.00780001143,NA,NA,149970.26229999,2,20957.6008000295,3,1,20
50,96,5356.54667500057,"a","speed","an2000he","0","b","a","0","0","0",18,2,700,"Tue Mar 21 10:59:10 2023",2,"eher schwer","speed","Experiment.osexp","Bild_s2_b_17.png",1080,"he",2000,"an","blaue","C:/Users/steff/Documents/Universität/Master Psychologie/SS 2022/Masterarbeit/Experiment/subject-2.csv",0,1,0,"l",5,-15,"l","l",468.585899972823,468.585899972823,2,219822.482999996,224473.291200004,NA,154985.799100017,200166.878900025,224942.605599994,224165.448200016,70751.1887000292,NA,NA,3998.93270002212,NA,195171.655400016,224172.738900001,223589.090100024,NA,223666.367300029,NA,200287.533299997,4728.07170002488,92752.7422999847,103411.705300037,115943.036300014,132005.966100027,140242.703200027,200287.668100034,224942.70340004,NA,219822.505399992,194727.821600041,NA,223288.828600023,NA,190048.808699998,221341.326199996,NA,NA,NA,NA,NA,NA,154985.614800011,200280.481000023,NA,223666.292899987,NA,NA,223583.663800033,3999.47550002253,224473.37870003,3999.50020003598,224165.36730004,154984.818900004,NA,NA,4711.00780001143,NA,NA,149970.26229999,2,21426.1867000023,4,1,20
60,96,4410.66240000073,"a","speed","an2000he","1","b","a","0","1","0",19,2,700,"Tue Mar 21 10:59:10 2023",2,"eher schwer","speed","Experiment.osexp","Bild_s2_b_21.png",1080,"he",2000,"an","blaue","C:/Users/steff/Documents/Universität/Master Psychologie/SS 2022/Masterarbeit/Experiment/subject-2.csv",0,0,0,"l",10,-10,"a","a",627.125300001353,627.125300001353,2,219822.482999996,226106.729899999,NA,154985.799100017,200166.878900025,226734.613900015,225798.912700033,70751.1887000292,NA,NA,3998.93270002212,NA,195171.655400016,225806.139799999,225254.162100027,NA,223666.367300029,NA,200287.533299997,4728.07170002488,92752.7422999847,103411.705300037,115943.036300014,132005.966100027,140242.703200027,200287.668100034,226734.694199986,NA,219822.505399992,194727.821600041,NA,223288.828600023,224953.520999989,190048.808699998,221341.326199996,NA,NA,NA,NA,NA,NA,154985.614800011,200280.481000023,NA,223666.292899987,NA,NA,225248.92089999,3999.47550002253,226106.839800021,3999.50020003598,225798.834200017,154984.818900004,NA,NA,4711.00780001143,NA,NA,149970.26229999,3,22053.3120000036,5,1,20
66.6666666666667,96,3776.86469999996,"a","speed","an2000he","1","b","a","0","1","0",20,2,700,"Tue Mar 21 10:59:10 2023",1,"eher leicht","speed","Experiment.osexp","Bild_s3_b_17.png",1080,"he",2000,"an","blaue","C:/Users/steff/Documents/Universität/Master Psychologie/SS 2022/Masterarbeit/Experiment/subject-2.csv",0,0,0,"l",15,-5,"a","a",607.876199996099,607.876199996099,2,219822.482999996,227981.987300038,NA,154985.799100017,200166.878900025,228590.632600011,227673.869399994,70751.1887000292,NA,NA,3998.93270002212,NA,195171.655400016,227681.214100041,227070.482300012,NA,227144.832400023,NA,200287.533299997,4728.07170002488,92752.7422999847,103411.705300037,115943.036300014,132005.966100027,140242.703200027,200287.668100034,228590.709400014,NA,219822.505399992,194727.821600041,NA,223288.828600023,224953.520999989,190048.808699998,226764.734200027,NA,NA,NA,NA,NA,NA,154985.614800011,200280.481000023,NA,227144.761800009,NA,NA,227064.984900004,3999.47550002253,227982.086500037,3999.50020003598,227673.789100023,154984.818900004,NA,NA,4711.00780001143,NA,NA,149970.26229999,4,22661.1881999997,6,1,20
71.4285714285714,96,3319.07337142288,"a","speed","an2000he","1","b","a","0","1","0",21,2,700,"Tue Mar 21 10:59:10 2023",1,"eher leicht","speed","Experiment.osexp","Bild_s3_b_7.png",1080,"he",2000,"an","blaue","C:/Users/steff/Documents/Universität/Master Psychologie/SS 2022/Masterarbeit/Experiment/subject-2.csv",0,0,0,"l",20,0,"a","a",572.325399960391,572.325399960391,2,219822.482999996,229777.450599999,NA,154985.799100017,200166.878900025,230350.698199996,229469.72709999,70751.1887000292,NA,NA,3998.93270002212,NA,195171.655400016,229476.806199993,228918.887000007,NA,227144.832400023,NA,200287.533299997,4728.07170002488,92752.7422999847,103411.705300037,115943.036300014,132005.966100027,140242.703200027,200287.668100034,230350.77280004,NA,219822.505399992,194727.821600041,NA,223288.828600023,224953.520999989,190048.808699998,228618.178800039,NA,NA,NA,NA,NA,NA,154985.614800011,200280.481000023,NA,227144.761800009,NA,NA,228913.441599987,3999.47550002253,229777.622100024,3999.50020003598,229469.648600032,154984.818900004,NA,NA,4711.00780001143,NA,NA,149970.26229999,5,23233.5135999601,7,1,20
75,96,2960.76582499518,"a","speed","an2000he","1","o","l","0","1","0",22,2,700,"Tue Mar 21 10:59:10 2023",0,"sehr leicht","speed","Experiment.osexp","Bild_s4_o_18.png",1080,"he",2000,"an","blaue","C:/Users/steff/Documents/Universität/Master Psychologie/SS 2022/Masterarbeit/Experiment/subject-2.csv",0,0,0,"l",25,5,"l","l",452.613000001293,452.613000001293,2,219822.482999996,231561.251300038,NA,154985.799100017,200166.878900025,232014.496000018,231252.930900024,70751.1887000292,NA,NA,3998.93270002212,NA,195171.655400016,231260.160300008,230667.119099991,NA,230743.936199986,NA,200287.533299997,4728.07170002488,92752.7422999847,103411.705300037,115943.036300014,132005.966100027,140242.703200027,200287.668100034,232014.569999999,NA,219822.505399992,194727.821600041,NA,223288.828600023,224953.520999989,190048.808699998,230366.209400003,NA,NA,NA,NA,NA,NA,154985.614800011,200280.481000023,NA,230743.863500014,NA,NA,230661.721399985,3999.47550002253,231561.343200039,3999.50020003598,231252.85390002,154984.818900004,NA,NA,4711.00780001143,NA,NA,149970.26229999,6,23686.1265999614,8,1,20
77.7777777777778,96,2696.0186555516,"a","speed","an2000he","1","o","l","0","1","0",23,2,700,"Tue Mar 21 10:59:10 2023",0,"sehr leicht","speed","Experiment.osexp","Bild_s4_o_14.png",1080,"he",2000,"an","blaue","C:/Users/steff/Documents/Universität/Master Psychologie/SS 2022/Masterarbeit/Experiment/subject-2.csv",0,0,0,"l",30,10,"l","l",578.041300002951,578.041300002951,2,219822.482999996,233195.819800021,NA,154985.799100017,200166.878900025,233774.552699993,232887.468200002,70751.1887000292,NA,NA,3998.93270002212,NA,195171.655400016,232894.715200004,232342.255800031,NA,230743.936199986,NA,200287.533299997,4728.07170002488,92752.7422999847,103411.705300037,115943.036300014,132005.966100027,140242.703200027,200287.668100034,233774.629899999,NA,219822.505399992,194727.821600041,NA,223288.828600023,224953.520999989,190048.808699998,232041.928699997,NA,NA,NA,NA,NA,NA,154985.614800011,200280.481000023,NA,230743.863500014,NA,NA,232336.898999987,3999.47550002253,233195.91509999,3999.50020003598,232887.38910004,154984.818900004,NA,NA,4711.00780001143,NA,NA,149970.26229999,7,24264.1678999644,9,1,20
80,96,2474.37259000144,"a","speed","an2000he","1","o","l","0","1","0",24,2,700,"Tue Mar 21 10:59:10 2023",0,"sehr leicht","speed","Experiment.osexp","Bild_s4_o_19.png",1080,"he",2000,"an","blaue","C:/Users/steff/Documents/Universität/Master Psychologie/SS 2022/Masterarbeit/Experiment/subject-2.csv",0,0,0,"l",35,15,"l","l",479.558000050019,479.558000050019,2,219822.482999996,234990.261800005,NA,154985.799100017,200166.878900025,235470.4853,234675.335300039,70751.1887000292,NA,NA,3998.93270002212,NA,195171.655400016,234682.227700017,234089.721299999,NA,234169.624300033,NA,200287.533299997,4728.07170002488,92752.7422999847,103411.705300037,115943.036300014,132005.966100027,140242.703200027,200287.668100034,235470.558700035,NA,219822.505399992,194727.821600041,NA,223288.828600023,224953.520999989,190048.808699998,233789.073600026,NA,NA,NA,NA,NA,NA,154985.614800011,200280.481000023,NA,234169.547300029,NA,NA,234084.383400041,3999.47550002253,234990.351399989,3999.50020003598,234675.257400027,154984.818900004,NA,NA,4711.00780001143,NA,NA,149970.26229999,8,24743.7259000144,10,1,20
81.8181818181818,96,2290.80895455131,"a","speed","an2000he","1","b","a","0","1","0",25,2,700,"Tue Mar 21 10:59:10 2023",0,"sehr leicht","speed","Experiment.osexp","Bild_s4_b_22.png",1080,"he",2000,"an","blaue","C:/Users/steff/Documents/Universität/Master Psychologie/SS 2022/Masterarbeit/Experiment/subject-2.csv",0,0,0,"l",40,20,"a","a",455.172600049991,455.172600049991,2,219822.482999996,236646.69590001,NA,154985.799100017,200166.878900025,237102.619800018,236339.074900025,70751.1887000292,NA,NA,3998.93270002212,NA,195171.655400016,236346.145400021,235799.556299986,NA,234169.624300033,NA,200287.533299997,4728.07170002488,92752.7422999847,103411.705300037,115943.036300014,132005.966100027,140242.703200027,200287.668100034,237102.695400012,NA,219822.505399992,194727.821600041,NA,223288.828600023,224953.520999989,190048.808699998,235498.836199986,NA,NA,NA,NA,NA,NA,154985.614800011,200280.481000023,NA,234169.547300029,NA,NA,235794.18289999,3999.47550002253,236646.776699985,3999.50020003598,236338.996800012,154984.818900004,NA,NA,4711.00780001143,NA,NA,149970.26229999,9,25198.8985000644,11,1,20
83.3333333333333,96,2152.66905000802,"a","speed","an2000he","1","b","a","0","1","0",26,2,700,"Tue Mar 21 10:59:10 2023",1,"eher leicht","speed","Experiment.osexp","Bild_s3_b_14.png",1080,"he",2000,"an","blaue","C:/Users/steff/Documents/Universität/Master Psychologie/SS 2022/Masterarbeit/Experiment/subject-2.csv",0,0,0,"l",45,25,"a","a",633.130100031849,633.130100031849,2,219822.482999996,238308.744100039,NA,154985.799100017,200166.878900025,238942.638400011,238000.609000039,70751.1887000292,NA,NA,3998.93270002212,NA,195171.655400016,238007.683200005,237419.597900007,NA,237499.110600038,NA,200287.533299997,4728.07170002488,92752.7422999847,103411.705300037,115943.036300014,132005.966100027,140242.703200027,200287.668100034,238942.715500016,NA,219822.505399992,194727.821600041,NA,223288.828600023,224953.520999989,190048.808699998,237117.082800018,NA,NA,NA,NA,NA,NA,154985.614800011,200280.481000023,NA,237499.032400025,NA,NA,237412.420900015,3999.47550002253,238308.8307,3999.50020003598,238000.527600001,154984.818900004,NA,NA,4711.00780001143,NA,NA,149970.26229999,10,25832.0286000962,12,1,20
76.9230769230769,96,2063.72456154517,"a","speed","an2000he","0","b","a","0","0","0",27,2,700,"Tue Mar 21 10:59:10 2023",1,"eher leicht","speed","Experiment.osexp","Bild_s3_b_8.png",1080,"he",2000,"an","blaue","C:/Users/steff/Documents/Universität/Master Psychologie/SS 2022/Masterarbeit/Experiment/subject-2.csv",0,0,1,"l",35,15,"l","l",996.390699991025,996.390699991025,2,219822.482999996,240121.375499992,NA,154985.799100017,200166.878900025,241118.70370002,239813.635600032,70751.1887000292,NA,NA,3998.93270002212,NA,195171.655400016,239820.579499996,239260.010500031,NA,237499.110600038,NA,200287.533299997,4728.07170002488,92752.7422999847,103411.705300037,115943.036300014,132005.966100027,140242.703200027,200287.668100034,241118.801900011,NA,219822.505399992,194727.821600041,NA,223288.828600023,224953.520999989,190048.808699998,238959.424900007,NA,NA,NA,NA,NA,NA,154985.614800011,200280.481000023,NA,237499.032400025,NA,NA,239254.607000039,3999.47550002253,240121.560600004,3999.50020003598,239813.55750002,154984.818900004,NA,NA,4711.00780001143,NA,NA,149970.26229999,10,26828.4193000873,13,1,20
78.5714285714286,96,1948.19911429243,"a","speed","an2000he","1","b","a","0","1","0",28,2,700,"Tue Mar 21 10:59:10 2023",2,"eher schwer","speed","Experiment.osexp","Bild_s2_b_11.png",1080,"he",2000,"an","blaue","C:/Users/steff/Documents/Universität/Master Psychologie/SS 2022/Masterarbeit/Experiment/subject-2.csv",0,0,0,"l",40,20,"a","a",446.368300006725,446.368300006725,2,219822.482999996,242319.362499984,NA,154985.799100017,200166.878900025,242766.532000038,242011.385700025,70751.1887000292,NA,NA,3998.93270002212,NA,195171.655400016,242018.682800001,241430.971299997,NA,241503.727600037,NA,200287.533299997,4728.07170002488,92752.7422999847,103411.705300037,115943.036300014,132005.966100027,140242.703200027,200287.668100034,242766.607100028,NA,219822.505399992,194727.821600041,NA,241129.745099985,224953.520999989,190048.808699998,238959.424900007,NA,NA,NA,NA,NA,NA,154985.614800011,200280.481000023,NA,241503.652299987,NA,NA,241425.5443,3999.47550002253,242319.556500006,3999.50020003598,242011.309000023,154984.818900004,NA,NA,4711.00780001143,NA,NA,149970.26229999,11,27274.787600094,14,1,20
80,96,1855.68117334042,"a","speed","an2000he","1","o","l","0","1","0",29,2,700,"Tue Mar 21 10:59:10 2023",2,"eher schwer","speed","Experiment.osexp","Bild_s2_o_7.png",1080,"he",2000,"an","blaue","C:/Users/steff/Documents/Universität/Master Psychologie/SS 2022/Masterarbeit/Experiment/subject-2.csv",0,0,0,"l",45,25,"l","l",560.430000012275,560.430000012275,2,219822.482999996,243933.314200025,NA,154985.799100017,200166.878900025,244494.546700036,243624.337000016,70751.1887000292,NA,NA,3998.93270002212,NA,195171.655400016,243631.558499997,243081.703500007,NA,241503.727600037,NA,200287.533299997,4728.07170002488,92752.7422999847,103411.705300037,115943.036300014,132005.966100027,140242.703200027,200287.668100034,244494.627000007,NA,219822.505399992,194727.821600041,NA,241129.745099985,224953.520999989,190048.808699998,242781.384500035,NA,NA,NA,NA,NA,NA,154985.614800011,200280.481000023,NA,241503.652299987,NA,NA,243076.377500023,3999.47550002253,243933.511500014,3999.50020003598,243624.255100032,154984.818900004,NA,NA,4711.00780001143,NA,NA,149970.26229999,12,27835.2176001063,15,1,20
81.25,96,1771.57302500564,"a","speed","an2000he","1","b","a","0","1","0",30,2,700,"Tue Mar 21 10:59:10 2023",3,"sehr schwer","speed","Experiment.osexp","Bild_s1_b_12.png",1080,"he",2000,"an","blaue","C:/Users/steff/Documents/Universität/Master Psychologie/SS 2022/Masterarbeit/Experiment/subject-2.csv",0,0,0,"l",50,30,"a","a",509.950799983926,509.950799983926,2,219822.482999996,245711.913400039,NA,154985.799100017,200166.878900025,246222.675800032,245403.878699988,70751.1887000292,NA,NA,3998.93270002212,NA,195171.655400016,245410.759299994,244825.2049,NA,244900.550200022,NA,200287.533299997,4728.07170002488,92752.7422999847,103411.705300037,115943.036300014,132005.966100027,140242.703200027,200287.668100034,246222.753100039,NA,219822.505399992,194727.821600041,NA,241129.745099985,224953.520999989,190048.808699998,244524.377299997,NA,NA,NA,NA,NA,NA,154985.614800011,200280.481000023,NA,244900.479200005,NA,NA,244819.742700027,3999.47550002253,245712.000600004,3999.50020003598,245403.748799989,154984.818900004,NA,NA,4711.00780001143,NA,NA,149970.26229999,13,28345.1684000902,16,1,20
82.3529411764706,96,1702.41772353663,"a","speed","an2000he","1","o","l","0","1","0",31,2,700,"Tue Mar 21 10:59:10 2023",3,"sehr schwer","speed","Experiment.osexp","Bild_s1_o_16.png",1080,"he",2000,"an","blaue","C:/Users/steff/Documents/Universität/Master Psychologie/SS 2022/Masterarbeit/Experiment/subject-2.csv",0,0,0,"l",55,35,"l","l",595.932900032494,595.932900032494,2,219822.482999996,247385.797600029,NA,154985.799100017,200166.878900025,247982.537000033,247077.857800003,70751.1887000292,NA,NA,3998.93270002212,NA,195171.655400016,247085.169500031,246533.489499998,NA,244900.550200022,NA,200287.533299997,4728.07170002488,92752.7422999847,103411.705300037,115943.036300014,132005.966100027,140242.703200027,200287.668100034,247982.615299989,NA,219822.505399992,194727.821600041,NA,241129.745099985,224953.520999989,190048.808699998,246233.098700002,NA,NA,NA,NA,NA,NA,154985.614800011,200280.481000023,NA,244900.479200005,NA,NA,246528.171600017,3999.47550002253,247386.000500002,3999.50020003598,247077.777600032,154984.818900004,NA,NA,4711.00780001143,NA,NA,149970.26229999,14,28941.1013001227,17,1,20
100,96,20841.3262666436,"a","speed","an2000he","1","o","l","0","1","0",32,3,700,"Tue Mar 21 10:59:10 2023",1,"eher leicht","speed","Experiment.osexp","Bild_s3_o_15.png",1080,"he",2000,"an","blaue","C:/Users/steff/Documents/Universität/Master Psychologie/SS 2022/Masterarbeit/Experiment/subject-2.csv",0,0,0,"l",5,5,"l","l",616.538399946876,616.538399946876,2,219822.482999996,263141.218500037,257966.534800013,154985.799100017,253445.787300006,263758.509800013,262833.349700028,70751.1887000292,NA,253518.763800035,3998.93270002212,NA,248450.648900005,262840.521999984,248309.816099994,262335.210299992,244900.550200022,258056.584100006,200287.533299997,4728.07170002488,92752.7422999847,103411.705300037,115943.036300014,132005.966100027,140242.703200027,258056.775600009,263758.580800029,262334.383100038,219822.505399992,194727.821600041,NA,241129.745099985,224953.520999989,190048.808699998,248005.336600007,NA,NA,NA,NA,NA,258049.505400006,154985.614800011,200280.481000023,262335.167100013,244900.479200005,257966.474300018,257918.514900026,248304.437100014,3999.47550002253,263141.379000037,3999.50020003598,262833.150100021,154984.818900004,253514.446299989,253479.182599986,4711.00780001143,NA,NA,149970.26229999,3,62523.9787999308,3,0,55
100,96,15749.3367499846,"a","speed","an2000he","1","b","a","0","1","0",33,3,700,"Tue Mar 21 10:59:10 2023",1,"eher leicht","speed","Experiment.osexp","Bild_s3_b_18.png",1080,"he",2000,"an","blaue","C:/Users/steff/Documents/Universität/Master Psychologie/SS 2022/Masterarbeit/Experiment/subject-2.csv",0,0,0,"l",10,10,"a","a",473.368200007826,473.368200007826,2,219822.482999996,264932.382500032,257966.534800013,154985.799100017,253445.787300006,265406.518200005,264623.994100024,70751.1887000292,NA,253518.763800035,3998.93270002212,NA,248450.648900005,264631.013400038,264083.957199997,262335.210299992,244900.550200022,258056.584100006,200287.533299997,4728.07170002488,92752.7422999847,103411.705300037,115943.036300014,132005.966100027,140242.703200027,258056.775600009,265406.587400008,262334.383100038,219822.505399992,194727.821600041,NA,241129.745099985,224953.520999989,190048.808699998,263783.192500006,NA,NA,NA,NA,NA,258049.505400006,154985.614800011,200280.481000023,262335.167100013,244900.479200005,257966.474300018,257918.514900026,264078.370400006,3999.47550002253,264932.56440002,3999.50020003598,264623.919300037,154984.818900004,253514.446299989,253479.182599986,4711.00780001143,NA,NA,149970.26229999,4,62997.3469999386,4,0,55
100,96,12714.2701399978,"a","speed","an2000he","1","b","a","0","1","0",34,3,700,"Tue Mar 21 10:59:10 2023",1,"eher leicht","speed","Experiment.osexp","Bild_s3_b_12.png",1080,"he",2000,"an","blaue","C:/Users/steff/Documents/Universität/Master Psychologie/SS 2022/Masterarbeit/Experiment/subject-2.csv",0,0,0,"l",15,15,"a","a",574.003700050525,574.003700050525,2,219822.482999996,266575.81270003,257966.534800013,154985.799100017,253445.787300006,267150.520500029,266267.866200011,70751.1887000292,NA,253518.763800035,3998.93270002212,NA,248450.648900005,266274.9664,265733.831399994,262335.210299992,244900.550200022,258056.584100006,200287.533299997,4728.07170002488,92752.7422999847,103411.705300037,115943.036300014,132005.966100027,140242.703200027,258056.775600009,267150.59189999,262334.383100038,219822.505399992,194727.821600041,NA,241129.745099985,224953.520999989,190048.808699998,265433.030100015,NA,NA,NA,NA,NA,258049.505400006,154985.614800011,200280.481000023,262335.167100013,244900.479200005,257966.474300018,257918.514900026,265728.418399987,3999.47550002253,266575.914399989,3999.50020003598,266267.7884,154984.818900004,253514.446299989,253479.182599986,4711.00780001143,NA,NA,149970.26229999,5,63571.3506999891,5,0,55
100,96,10670.355149991,"a","speed","an2000he","1","o","l","0","1","0",35,3,700,"Tue Mar 21 10:59:10 2023",1,"eher leicht","speed","Experiment.osexp","Bild_s3_o_22.png",1080,"he",2000,"an","blaue","C:/Users/steff/Documents/Universität/Master Psychologie/SS 2022/Masterarbeit/Experiment/subject-2.csv",0,0,0,"l",20,20,"l","l",450.78019995708,450.78019995708,2,219822.482999996,268315.019800037,257966.534800013,154985.799100017,253445.787300006,268766.515000025,268006.613200007,70751.1887000292,NA,253518.763800035,3998.93270002212,NA,248450.648900005,268013.817700034,267465.60580004,262335.210299992,244900.550200022,258056.584100006,200287.533299997,4728.07170002488,92752.7422999847,103411.705300037,115943.036300014,132005.966100027,140242.703200027,258056.775600009,268766.589600011,262334.383100038,219822.505399992,194727.821600041,NA,241129.745099985,224953.520999989,190048.808699998,267164.981500013,NA,NA,NA,NA,NA,258049.505400006,154985.614800011,200280.481000023,262335.167100013,244900.479200005,257966.474300018,257918.514900026,267460.232199985,3999.47550002253,268315.127400041,3999.50020003598,268006.534999993,154984.818900004,253514.446299989,253479.182599986,4711.00780001143,NA,NA,149970.26229999,6,64022.1308999462,6,0,55
100,96,9205.64245713675,"a","speed","an2000he","1","b","a","0","1","0",36,3,700,"Tue Mar 21 10:59:10 2023",1,"eher leicht","speed","Experiment.osexp","Bild_s3_b_17.png",1080,"he",2000,"an","blaue","C:/Users/steff/Documents/Universität/Master Psychologie/SS 2022/Masterarbeit/Experiment/subject-2.csv",0,0,0,"l",25,25,"a","a",417.366300011054,417.366300011054,2,219822.482999996,269932.474100031,257966.534800013,154985.799100017,253445.787300006,270350.543999986,269624.940400012,70751.1887000292,NA,253518.763800035,3998.93270002212,NA,248450.648900005,269631.437400007,269088.465899986,262335.210299992,244900.550200022,258056.584100006,200287.533299997,4728.07170002488,92752.7422999847,103411.705300037,115943.036300014,132005.966100027,140242.703200027,258056.775600009,270350.617300021,262334.383100038,219822.505399992,194727.821600041,NA,241129.745099985,224953.520999989,190048.808699998,268787.242199993,NA,NA,NA,NA,NA,258049.505400006,154985.614800011,200280.481000023,262335.167100013,244900.479200005,257966.474300018,257918.514900026,269082.873600011,3999.47550002253,269932.554200001,3999.50020003598,269624.861799995,154984.818900004,253514.446299989,253479.182599986,4711.00780001143,NA,NA,149970.26229999,7,64439.4971999573,7,0,55
100,96,8113.07199999283,"a","speed","an2000he","1","o","l","0","1","0",37,3,700,"Tue Mar 21 10:59:10 2023",1,"eher leicht","speed","Experiment.osexp","Bild_s3_o_10.png",1080,"he",2000,"an","blaue","C:/Users/steff/Documents/Universität/Master Psychologie/SS 2022/Masterarbeit/Experiment/subject-2.csv",0,0,0,"l",30,30,"l","l",465.078799985349,465.078799985349,2,219822.482999996,271516.752500029,257966.534800013,154985.799100017,253445.787300006,271982.551200024,271209.171399998,70751.1887000292,NA,253518.763800035,3998.93270002212,NA,248450.648900005,271216.030400014,270665.473700035,262335.210299992,244900.550200022,258056.584100006,200287.533299997,4728.07170002488,92752.7422999847,103411.705300037,115943.036300014,132005.966100027,140242.703200027,258056.775600009,271982.623999997,262334.383100038,219822.505399992,194727.821600041,NA,241129.745099985,224953.520999989,190048.808699998,270364.972500014,NA,NA,NA,NA,NA,258049.505400006,154985.614800011,200280.481000023,262335.167100013,244900.479200005,257966.474300018,257918.514900026,270660.063299991,3999.47550002253,271516.842800018,3999.50020003598,271209.090600023,154984.818900004,253514.446299989,253479.182599986,4711.00780001143,NA,NA,149970.26229999,8,64904.5759999426,8,0,55
100,96,7258.48298888498,"a","speed","an2000he","1","b","a","0","1","0",38,3,700,"Tue Mar 21 10:59:10 2023",1,"eher leicht","speed","Experiment.osexp","Bild_s3_b_14.png",1080,"he",2000,"an","blaue","C:/Users/steff/Documents/Universität/Master Psychologie/SS 2022/Masterarbeit/Experiment/subject-2.csv",0,0,0,"l",35,35,"a","a",421.770900022238,421.770900022238,2,219822.482999996,273160.053400032,257966.534800013,154985.799100017,253445.787300006,273582.609300036,272850.928700005,70751.1887000292,NA,253518.763800035,3998.93270002212,NA,248450.648900005,272857.663100003,272312.211700017,262335.210299992,244900.550200022,258056.584100006,200287.533299997,4728.07170002488,92752.7422999847,103411.705300037,115943.036300014,132005.966100027,140242.703200027,258056.775600009,273582.681200001,262334.383100038,219822.505399992,194727.821600041,NA,241129.745099985,224953.520999989,190048.808699998,272011.612400005,NA,NA,NA,NA,NA,258049.505400006,154985.614800011,200280.481000023,262335.167100013,244900.479200005,257966.474300018,257918.514900026,272306.794800039,3999.47550002253,273160.14230001,3999.50020003598,272850.852100004,154984.818900004,253514.446299989,253479.182599986,4711.00780001143,NA,NA,149970.26229999,9,65326.3468999648,9,0,55
100,96,6578.2930699992,"a","speed","an2000he","1","b","a","0","1","0",39,3,700,"Tue Mar 21 10:59:10 2023",1,"eher leicht","speed","Experiment.osexp","Bild_s3_b_8.png",1080,"he",2000,"an","blaue","C:/Users/steff/Documents/Universität/Master Psychologie/SS 2022/Masterarbeit/Experiment/subject-2.csv",0,0,0,"l",40,40,"a","a",456.583800027147,456.583800027147,2,219822.482999996,274757.152800041,257966.534800013,154985.799100017,253445.787300006,275214.545499999,274448.96780001,70751.1887000292,NA,253518.763800035,3998.93270002212,NA,248450.648900005,274455.993400014,273909.619599988,262335.210299992,244900.550200022,258056.584100006,200287.533299997,4728.07170002488,92752.7422999847,103411.705300037,115943.036300014,132005.966100027,140242.703200027,258056.775600009,275214.623600012,262334.383100038,219822.505399992,194727.821600041,NA,241129.745099985,224953.520999989,190048.808699998,273608.724799997,NA,NA,NA,NA,NA,258049.505400006,154985.614800011,200280.481000023,262335.167100013,244900.479200005,257966.474300018,257918.514900026,273904.278300004,3999.47550002253,274757.330799999,3999.50020003598,274448.888999992,154984.818900004,253514.446299989,253479.182599986,4711.00780001143,NA,NA,149970.26229999,10,65782.930699992,10,0,55
90.9090909090909,96,6017.34124545791,"a","speed","an2000he","0","b","a","0","0","0",40,3,700,"Tue Mar 21 10:59:10 2023",2,"eher schwer","speed","Experiment.osexp","Bild_s2_b_6.png",1080,"he",2000,"an","blaue","C:/Users/steff/Documents/Universität/Master Psychologie/SS 2022/Masterarbeit/Experiment/subject-2.csv",0,1,0,"l",30,30,"l","l",407.823000045028,407.823000045028,2,219822.482999996,276422.005600005,257966.534800013,154985.799100017,253445.787300006,276830.45519999,276113.91970003,70751.1887000292,NA,253518.763800035,3998.93270002212,NA,248450.648900005,276120.746600034,275536.370099988,275610.486900026,244900.550200022,258056.584100006,200287.533299997,4728.07170002488,92752.7422999847,103411.705300037,115943.036300014,132005.966100027,140242.703200027,258056.775600009,276830.550600018,262334.383100038,219822.505399992,194727.821600041,NA,241129.745099985,224953.520999989,190048.808699998,275235.429599998,NA,NA,NA,NA,NA,258049.505400006,154985.614800011,200280.481000023,275610.415600007,244900.479200005,257966.474300018,257918.514900026,275530.943499994,3999.47550002253,276422.086999984,3999.50020003598,276113.840500009,154984.818900004,253514.446299989,253479.182599986,4711.00780001143,NA,NA,149970.26229999,10,66190.753700037,11,0,55
91.6666666666667,96,5545.8844583336,"a","speed","an2000he","1","b","a","0","1","0",41,3,700,"Tue Mar 21 10:59:10 2023",2,"eher schwer","speed","Experiment.osexp","Bild_s2_b_22.png",1080,"he",2000,"an","blaue","C:/Users/steff/Documents/Universität/Master Psychologie/SS 2022/Masterarbeit/Experiment/subject-2.csv",0,0,0,"l",35,35,"a","a",359.859799966216,359.859799966216,2,219822.482999996,278005.964000011,257966.534800013,154985.799100017,253445.787300006,278366.506999999,277697.54590001,70751.1887000292,NA,253518.763800035,3998.93270002212,NA,248450.648900005,277704.821199994,277145.684899995,275610.486900026,244900.550200022,258056.584100006,200287.533299997,4728.07170002488,92752.7422999847,103411.705300037,115943.036300014,132005.966100027,140242.703200027,258056.775600009,278366.584400006,262334.383100038,219822.505399992,194727.821600041,NA,241129.745099985,276845.146300038,190048.808699998,275235.429599998,NA,NA,NA,NA,NA,258049.505400006,154985.614800011,200280.481000023,275610.415600007,244900.479200005,257966.474300018,257918.514900026,277140.310899995,3999.47550002253,278006.043200032,3999.50020003598,277697.455800022,154984.818900004,253514.446299989,253479.182599986,4711.00780001143,NA,NA,149970.26229999,11,66550.6135000032,12,0,55
92.3076923076923,96,5150.92108461809,"a","speed","an2000he","1","o","l","0","1","0",42,3,700,"Tue Mar 21 10:59:10 2023",2,"eher schwer","speed","Experiment.osexp","Bild_s2_o_17.png",1080,"he",2000,"an","blaue","C:/Users/steff/Documents/Universität/Master Psychologie/SS 2022/Masterarbeit/Experiment/subject-2.csv",0,0,0,"l",40,40,"l","l",411.360600031912,411.360600031912,2,219822.482999996,279538.46120002,257966.534800013,154985.799100017,253445.787300006,279950.517199992,279229.903900006,70751.1887000292,NA,253518.763800035,3998.93270002212,NA,248450.648900005,279237.058300001,278687.616600015,275610.486900026,244900.550200022,258056.584100006,200287.533299997,4728.07170002488,92752.7422999847,103411.705300037,115943.036300014,132005.966100027,140242.703200027,258056.775600009,279950.5947,262334.383100038,219822.505399992,194727.821600041,NA,241129.745099985,276845.146300038,190048.808699998,278386.691800028,NA,NA,NA,NA,NA,258049.505400006,154985.614800011,200280.481000023,275610.415600007,244900.479200005,257966.474300018,257918.514900026,278682.172000001,3999.47550002253,279538.549899997,3999.50020003598,279229.820600012,154984.818900004,253514.446299989,253479.182599986,4711.00780001143,NA,NA,149970.26229999,12,66961.9741000351,13,0,55
92.8571428571429,96,4829.57507857437,"a","speed","an2000he","1","o","l","0","1","0",43,3,700,"Tue Mar 21 10:59:10 2023",2,"eher schwer","speed","Experiment.osexp","Bild_s2_o_1.png",1080,"he",2000,"an","blaue","C:/Users/steff/Documents/Universität/Master Psychologie/SS 2022/Masterarbeit/Experiment/subject-2.csv",0,0,0,"l",45,45,"l","l",652.077000006102,652.077000006102,2,219822.482999996,281121.667900006,257966.534800013,154985.799100017,253445.787300006,281774.57519999,280813.350700017,70751.1887000292,NA,253518.763800035,3998.93270002212,NA,248450.648900005,280820.565100003,280265.954800008,275610.486900026,244900.550200022,258056.584100006,200287.533299997,4728.07170002488,92752.7422999847,103411.705300037,115943.036300014,132005.966100027,140242.703200027,258056.775600009,281774.670600018,262334.383100038,219822.505399992,194727.821600041,NA,241129.745099985,276845.146300038,190048.808699998,279965.641800023,NA,NA,NA,NA,NA,258049.505400006,154985.614800011,200280.481000023,275610.415600007,244900.479200005,257966.474300018,257918.514900026,280260.596900014,3999.47550002253,281121.831100027,3999.50020003598,280813.268500031,154984.818900004,253514.446299989,253479.182599986,4711.00780001143,NA,NA,149970.26229999,13,67614.0511000413,14,0,55
93.3333333333333,96,4545.89120000601,"a","speed","an2000he","1","b","a","0","1","0",44,3,700,"Tue Mar 21 10:59:10 2023",2,"eher schwer","speed","Experiment.osexp","Bild_s2_b_17.png",1080,"he",2000,"an","blaue","C:/Users/steff/Documents/Universität/Master Psychologie/SS 2022/Masterarbeit/Experiment/subject-2.csv",0,0,0,"l",50,50,"a","a",574.316900048871,574.316900048871,2,219822.482999996,282943.387200008,257966.534800013,154985.799100017,253445.787300006,283518.599200004,282634.734600026,70751.1887000292,NA,253518.763800035,3998.93270002212,NA,248450.648900005,282642.021799984,282096.33640002,275610.486900026,244900.550200022,258056.584100006,200287.533299997,4728.07170002488,92752.7422999847,103411.705300037,115943.036300014,132005.966100027,140242.703200027,258056.775600009,283518.67640001,262334.383100038,219822.505399992,194727.821600041,NA,241129.745099985,276845.146300038,190048.808699998,281795.185199997,NA,NA,NA,NA,NA,258049.505400006,154985.614800011,200280.481000023,275610.415600007,244900.479200005,257966.474300018,257918.514900026,282090.957000037,3999.47550002253,282943.590599985,3999.50020003598,282634.652799985,154984.818900004,253514.446299989,253479.182599986,4711.00780001143,NA,NA,149970.26229999,14,68188.3680000901,15,0,55
93.75,96,4294.54186250223,"a","speed","an2000he","1","o","l","0","1","0",45,3,700,"Tue Mar 21 10:59:10 2023",2,"eher schwer","speed","Experiment.osexp","Bild_s2_o_8.png",1080,"he",2000,"an","blaue","C:/Users/steff/Documents/Universität/Master Psychologie/SS 2022/Masterarbeit/Experiment/subject-2.csv",0,0,0,"l",55,55,"l","l",524.301799945533,524.301799945533,2,219822.482999996,284689.518400002,257966.534800013,154985.799100017,253445.787300006,285214.530600002,284381.313799997,70751.1887000292,NA,253518.763800035,3998.93270002212,NA,248450.648900005,284388.210600009,283834.252900037,275610.486900026,244900.550200022,258056.584100006,200287.533299997,4728.07170002488,92752.7422999847,103411.705300037,115943.036300014,132005.966100027,140242.703200027,258056.775600009,285214.607900009,262334.383100038,219822.505399992,194727.821600041,NA,241129.745099985,276845.146300038,190048.808699998,283533.709599986,NA,NA,NA,NA,NA,258049.505400006,154985.614800011,200280.481000023,275610.415600007,244900.479200005,257966.474300018,257918.514900026,283828.872899991,3999.47550002253,284689.607600041,3999.50020003598,284381.235699984,154984.818900004,253514.446299989,253479.182599986,4711.00780001143,NA,NA,149970.26229999,15,68712.6698000357,16,0,55
94.1176470588235,96,4072.66615882434,"a","speed","an2000he","1","o","l","0","1","0",46,3,700,"Tue Mar 21 10:59:10 2023",2,"eher schwer","speed","Experiment.osexp","Bild_s2_o_22.png",1080,"he",2000,"an","blaue","C:/Users/steff/Documents/Universität/Master Psychologie/SS 2022/Masterarbeit/Experiment/subject-2.csv",0,0,0,"l",60,60,"l","l",522.654899978079,522.654899978079,2,219822.482999996,286387.157700025,257966.534800013,154985.799100017,253445.787300006,286910.658000037,286079.266500019,70751.1887000292,NA,253518.763800035,3998.93270002212,NA,248450.648900005,286086.522200028,285529.91859999,275610.486900026,244900.550200022,258056.584100006,200287.533299997,4728.07170002488,92752.7422999847,103411.705300037,115943.036300014,132005.966100027,140242.703200027,258056.775600009,286910.734000034,262334.383100038,219822.505399992,194727.821600041,NA,241129.745099985,276845.146300038,190048.808699998,285229.600900027,NA,NA,NA,NA,NA,258049.505400006,154985.614800011,200280.481000023,275610.415600007,244900.479200005,257966.474300018,257918.514900026,285524.568099994,3999.47550002253,286387.243600038,3999.50020003598,286079.185300041,154984.818900004,253514.446299989,253479.182599986,4711.00780001143,NA,NA,149970.26229999,16,69235.3247000137,17,0,55
94.4444444444444,96,3883.18093888746,"a","speed","an2000he","1","b","a","0","1","0",47,3,700,"Tue Mar 21 10:59:10 2023",2,"eher schwer","speed","Experiment.osexp","Bild_s2_b_20.png",1080,"he",2000,"an","blaue","C:/Users/steff/Documents/Universität/Master Psychologie/SS 2022/Masterarbeit/Experiment/subject-2.csv",0,0,0,"l",65,65,"a","a",661.932199960575,661.932199960575,2,219822.482999996,288087.879300001,257966.534800013,154985.799100017,253445.787300006,288750.738900038,287780.179499998,70751.1887000292,NA,253518.763800035,3998.93270002212,NA,248450.648900005,287787.523700041,287226.624100003,275610.486900026,244900.550200022,258056.584100006,200287.533299997,4728.07170002488,92752.7422999847,103411.705300037,115943.036300014,132005.966100027,140242.703200027,258056.775600009,288750.817699998,262334.383100038,219822.505399992,194727.821600041,NA,241129.745099985,276845.146300038,190048.808699998,286925.75460003,NA,NA,NA,NA,NA,258049.505400006,154985.614800011,200280.481000023,275610.415600007,244900.479200005,257966.474300018,257918.514900026,287221.171299985,3999.47550002253,288087.967400032,3999.50020003598,287780.099200027,154984.818900004,253514.446299989,253479.182599986,4711.00780001143,NA,NA,149970.26229999,17,69897.2568999743,18,0,55
94.7368421052632,96,3702.31104736817,"a","speed","an2000he","1","o","l","0","1","0",48,3,700,"Tue Mar 21 10:59:10 2023",3,"sehr schwer","speed","Experiment.osexp","Bild_s1_o_7.png",1080,"he",2000,"an","blaue","C:/Users/steff/Documents/Universität/Master Psychologie/SS 2022/Masterarbeit/Experiment/subject-2.csv",0,0,0,"l",70,70,"l","l",446.653000020888,446.653000020888,2,219822.482999996,289967.155300023,257966.534800013,154985.799100017,253445.787300006,290414.491300005,289659.568700008,70751.1887000292,NA,253518.763800035,3998.93270002212,NA,248450.648900005,289666.250300012,289075.114900013,289151.508300041,244900.550200022,258056.584100006,200287.533299997,4728.07170002488,92752.7422999847,103411.705300037,115943.036300014,132005.966100027,140242.703200027,258056.775600009,290414.575700008,262334.383100038,219822.505399992,194727.821600041,NA,241129.745099985,276845.146300038,190048.808699998,288774.013600021,NA,NA,NA,NA,NA,258049.505400006,154985.614800011,200280.481000023,289151.429300022,244900.479200005,257966.474300018,257918.514900026,289069.716800004,3999.47550002253,289967.244700005,3999.50020003598,289659.492000006,154984.818900004,253514.446299989,253479.182599986,4711.00780001143,NA,NA,149970.26229999,18,70343.9098999952,19,0,55
95,96,3544.54951499938,"a","speed","an2000he","1","o","l","0","1","0",49,3,700,"Tue Mar 21 10:59:10 2023",3,"sehr schwer","speed","Experiment.osexp","Bild_s1_o_25.png",1080,"he",2000,"an","blaue","C:/Users/steff/Documents/Universität/Master Psychologie/SS 2022/Masterarbeit/Experiment/subject-2.csv",0,0,0,"l",75,75,"l","l",547.08039999241,547.08039999241,2,219822.482999996,291594.742699992,257966.534800013,154985.799100017,253445.787300006,292142.592000018,291286.994100024,70751.1887000292,NA,253518.763800035,3998.93270002212,NA,248450.648900005,291294.258000038,290730.565400037,289151.508300041,244900.550200022,258056.584100006,200287.533299997,4728.07170002488,92752.7422999847,103411.705300037,115943.036300014,132005.966100027,140242.703200027,258056.775600009,292142.666500004,262334.383100038,219822.505399992,194727.821600041,NA,241129.745099985,276845.146300038,190048.808699998,290429.072700033,NA,NA,NA,NA,NA,258049.505400006,154985.614800011,200280.481000023,289151.429300022,244900.479200005,257966.474300018,257918.514900026,290725.234600017,3999.47550002253,291594.82280002,3999.50020003598,291286.915500008,154984.818900004,253514.446299989,253479.182599986,4711.00780001143,NA,NA,149970.26229999,19,70890.9902999876,20,0,55
95.2380952380952,96,3401.65538095226,"a","speed","an2000he","1","o","l","0","1","0",50,3,700,"Tue Mar 21 10:59:10 2023",3,"sehr schwer","speed","Experiment.osexp","Bild_s1_o_1.png",1080,"he",2000,"an","blaue","C:/Users/steff/Documents/Universität/Master Psychologie/SS 2022/Masterarbeit/Experiment/subject-2.csv",0,0,0,"l",80,80,"l","l",543.772700009868,543.772700009868,2,219822.482999996,293310.037599993,257966.534800013,154985.799100017,253445.787300006,293854.726999998,293002.183400036,70751.1887000292,NA,253518.763800035,3998.93270002212,NA,248450.648900005,293009.061300021,292457.794499991,289151.508300041,244900.550200022,258056.584100006,200287.533299997,4728.07170002488,92752.7422999847,103411.705300037,115943.036300014,132005.966100027,140242.703200027,258056.775600009,293854.812100006,262334.383100038,219822.505399992,194727.821600041,NA,241129.745099985,276845.146300038,190048.808699998,292157.428300008,NA,NA,NA,NA,NA,258049.505400006,154985.614800011,200280.481000023,289151.429300022,244900.479200005,257966.474300018,257918.514900026,292452.394700027,3999.47550002253,293310.132200015,3999.50020003598,293002.105900028,154984.818900004,253514.446299989,253479.182599986,4711.00780001143,NA,NA,149970.26229999,20,71434.7629999975,21,0,55
90.9090909090909,96,3273.92840909306,"a","speed","an2000he","0","b","a","0","0","0",51,3,700,"Tue Mar 21 10:59:10 2023",3,"sehr schwer","speed","Experiment.osexp","Bild_s1_b_24.png",1080,"he",2000,"an","blaue","C:/Users/steff/Documents/Universität/Master Psychologie/SS 2022/Masterarbeit/Experiment/subject-2.csv",0,1,0,"l",70,70,"l","l",591.662000049837,591.662000049837,2,219822.482999996,295038.156900031,257966.534800013,154985.799100017,253445.787300006,295630.738600041,294730.090800032,70751.1887000292,NA,253518.763800035,3998.93270002212,NA,248450.648900005,294737.000300025,294182.038600033,289151.508300041,244900.550200022,258056.584100006,200287.533299997,4728.07170002488,92752.7422999847,103411.705300037,115943.036300014,132005.966100027,140242.703200027,258056.775600009,295630.83899999,262334.383100038,219822.505399992,194727.821600041,NA,241129.745099985,276845.146300038,190048.808699998,293879.072599986,NA,NA,NA,NA,NA,258049.505400006,154985.614800011,200280.481000023,289151.429300022,244900.479200005,257966.474300018,257918.514900026,294174.53020002,3999.47550002253,295038.242999988,3999.50020003598,294730.00770004,154984.818900004,253514.446299989,253479.182599986,4711.00780001143,NA,NA,149970.26229999,20,72026.4250000473,22,0,55
86.9565217391304,96,3159.14508695815,"a","speed","an2000he","0","b","a","0","0","0",52,3,700,"Tue Mar 21 10:59:10 2023",3,"sehr schwer","speed","Experiment.osexp","Bild_s1_b_22.png",1080,"he",2000,"an","blaue","C:/Users/steff/Documents/Universität/Master Psychologie/SS 2022/Masterarbeit/Experiment/subject-2.csv",0,1,0,"l",60,60,"l","l",633.911999990232,633.911999990232,2,219822.482999996,296803.907599999,257966.534800013,154985.799100017,253445.787300006,297438.703000022,296495.808200038,70751.1887000292,NA,253518.763800035,3998.93270002212,NA,248450.648900005,296502.965599997,295946.553300018,289151.508300041,244900.550200022,258056.584100006,200287.533299997,4728.07170002488,92752.7422999847,103411.705300037,115943.036300014,132005.966100027,140242.703200027,258056.775600009,297438.800500007,262334.383100038,219822.505399992,194727.821600041,NA,241129.745099985,295645.671000006,190048.808699998,293879.072599986,NA,NA,NA,NA,NA,258049.505400006,154985.614800011,200280.481000023,289151.429300022,244900.479200005,257966.474300018,257918.514900026,295941.219800035,3999.47550002253,296803.995900031,3999.50020003598,296495.730300026,154984.818900004,253514.446299989,253479.182599986,4711.00780001143,NA,NA,149970.26229999,20,72660.3370000375,23,0,55
87.5,96,3051.34394166816,"a","speed","an2000he","1","b","a","0","1","0",53,3,700,"Tue Mar 21 10:59:10 2023",3,"sehr schwer","speed","Experiment.osexp","Bild_s1_b_14.png",1080,"he",2000,"an","blaue","C:/Users/steff/Documents/Universität/Master Psychologie/SS 2022/Masterarbeit/Experiment/subject-2.csv",0,0,0,"l",65,65,"a","a",571.917599998415,571.917599998415,2,219822.482999996,298609.796000004,257966.534800013,154985.799100017,253445.787300006,299182.614199992,298301.216399996,70751.1887000292,NA,253518.763800035,3998.93270002212,NA,248450.648900005,298308.309699991,297760.279100039,289151.508300041,244900.550200022,258056.584100006,200287.533299997,4728.07170002488,92752.7422999847,103411.705300037,115943.036300014,132005.966100027,140242.703200027,258056.775600009,299182.691399998,262334.383100038,219822.505399992,194727.821600041,NA,241129.745099985,297459.293499996,190048.808699998,293879.072599986,NA,NA,NA,NA,NA,258049.505400006,154985.614800011,200280.481000023,289151.429300022,244900.479200005,257966.474300018,257918.514900026,297754.840700014,3999.47550002253,298609.98519999,3999.50020003598,298301.134700014,154984.818900004,253514.446299989,253479.182599986,4711.00780001143,NA,NA,149970.26229999,21,73232.254600036,24,0,55
88,96,2957.26722000167,"a","speed","an2000he","1","b","a","0","1","0",54,3,700,"Tue Mar 21 10:59:10 2023",3,"sehr schwer","speed","Experiment.osexp","Bild_s1_b_12.png",1080,"he",2000,"an","blaue","C:/Users/steff/Documents/Universität/Master Psychologie/SS 2022/Masterarbeit/Experiment/subject-2.csv",0,0,0,"l",70,70,"a","a",699.425900005735,699.425900005735,2,219822.482999996,300354.409800027,257966.534800013,154985.799100017,253445.787300006,301054.731299984,300046.29930004,70751.1887000292,NA,253518.763800035,3998.93270002212,NA,248450.648900005,300053.282100009,299494.296599994,289151.508300041,244900.550200022,258056.584100006,200287.533299997,4728.07170002488,92752.7422999847,103411.705300037,115943.036300014,132005.966100027,140242.703200027,258056.775600009,301054.809599998,262334.383100038,219822.505399992,194727.821600041,NA,241129.745099985,297459.293499996,190048.808699998,299193.62939999,NA,NA,NA,NA,NA,258049.505400006,154985.614800011,200280.481000023,289151.429300022,244900.479200005,257966.474300018,257918.514900026,299488.933800021,3999.47550002253,300354.500400019,3999.50020003598,300046.221400029,154984.818900004,253514.446299989,253479.182599986,4711.00780001143,NA,NA,149970.26229999,22,73931.6805000417,25,0,55
84.6153846153846,96,2870.9903961549,"a","speed","an2000he","0","b","a","0","0","0",55,3,700,"Tue Mar 21 10:59:10 2023",3,"sehr schwer","speed","Experiment.osexp","Bild_s1_b_2.png",1080,"he",2000,"an","blaue","C:/Users/steff/Documents/Universität/Master Psychologie/SS 2022/Masterarbeit/Experiment/subject-2.csv",0,0,1,"l",60,60,"l","l",714.069799985737,714.069799985737,2,219822.482999996,302227.72970004,257966.534800013,154985.799100017,253445.787300006,302942.5605,301919.717899989,70751.1887000292,NA,253518.763800035,3998.93270002212,NA,248450.648900005,301926.596700039,301367.767599993,289151.508300041,244900.550200022,258056.584100006,200287.533299997,4728.07170002488,92752.7422999847,103411.705300037,115943.036300014,132005.966100027,140242.703200027,258056.775600009,302942.655200022,262334.383100038,219822.505399992,194727.821600041,NA,241129.745099985,297459.293499996,190048.808699998,301066.72100001,NA,NA,NA,NA,NA,258049.505400006,154985.614800011,200280.481000023,289151.429300022,244900.479200005,257966.474300018,257918.514900026,301362.268300029,3999.47550002253,302227.813900041,3999.50020003598,301919.639300031,154984.818900004,253514.446299989,253479.182599986,4711.00780001143,NA,NA,149970.26229999,22,74645.7503000274,26,0,55
85.1851851851852,96,2787.88965185501,"a","speed","an2000he","1","o","l","0","1","0",56,3,700,"Tue Mar 21 10:59:10 2023",3,"sehr schwer","speed","Experiment.osexp","Bild_s1_o_24.png",1080,"he",2000,"an","blaue","C:/Users/steff/Documents/Universität/Master Psychologie/SS 2022/Masterarbeit/Experiment/subject-2.csv",0,0,0,"l",65,65,"l","l",627.270300057717,627.270300057717,2,219822.482999996,304170.539500017,257966.534800013,154985.799100017,253445.787300006,304798.777299991,303862.792400003,70751.1887000292,NA,253518.763800035,3998.93270002212,NA,248450.648900005,303869.942900026,303272.284700011,303345.004900009,244900.550200022,258056.584100006,200287.533299997,4728.07170002488,92752.7422999847,103411.705300037,115943.036300014,132005.966100027,140242.703200027,258056.775600009,304798.856100009,262334.383100038,219822.505399992,194727.821600041,NA,302971.992600011,297459.293499996,190048.808699998,301066.72100001,NA,NA,NA,NA,NA,258049.505400006,154985.614800011,200280.481000023,303344.92990002,244900.479200005,257966.474300018,257918.514900026,303266.857900016,3999.47550002253,304170.619199984,3999.50020003598,303862.714899995,154984.818900004,253514.446299989,253479.182599986,4711.00780001143,NA,NA,149970.26229999,23,75273.0206000851,27,0,55
85.7142857142857,96,2709.89901428818,"a","speed","an2000he","1","o","l","0","1","0",57,3,700,"Tue Mar 21 10:59:10 2023",3,"sehr schwer","speed","Experiment.osexp","Bild_s1_o_15.png",1080,"he",2000,"an","blaue","C:/Users/steff/Documents/Universität/Master Psychologie/SS 2022/Masterarbeit/Experiment/subject-2.csv",0,0,0,"l",70,70,"l","l",604.151799983811,604.151799983811,2,219822.482999996,305985.528799996,257966.534800013,154985.799100017,253445.787300006,306590.598899988,305677.90130002,70751.1887000292,NA,253518.763800035,3998.93270002212,NA,248450.648900005,305684.863600007,305122.861800017,303345.004900009,244900.550200022,258056.584100006,200287.533299997,4728.07170002488,92752.7422999847,103411.705300037,115943.036300014,132005.966100027,140242.703200027,258056.775600009,306590.677100001,262334.383100038,219822.505399992,194727.821600041,NA,302971.992600011,297459.293499996,190048.808699998,304822.082600032,NA,NA,NA,NA,NA,258049.505400006,154985.614800011,200280.481000023,303344.92990002,244900.479200005,257966.474300018,257918.514900026,305117.538199993,3999.47550002253,305985.731000022,3999.50020003598,305677.821799996,154984.818900004,253514.446299989,253479.182599986,4711.00780001143,NA,NA,149970.26229999,24,75877.172400069,28,0,55
82.7586206896552,96,2639.89562758823,"a","speed","an2000he","0","o","l","0","0","0",58,3,700,"Tue Mar 21 10:59:10 2023",3,"sehr schwer","speed","Experiment.osexp","Bild_s1_o_9.png",1080,"he",2000,"an","blaue","C:/Users/steff/Documents/Universität/Master Psychologie/SS 2022/Masterarbeit/Experiment/subject-2.csv",0,1,0,"l",60,60,"a","a",679.800799989607,679.800799989607,2,219822.482999996,307765.999399999,257966.534800013,154985.799100017,253445.787300006,308446.785000036,307457.707400026,70751.1887000292,NA,253518.763800035,3998.93270002212,NA,248450.648900005,307465.141299996,306902.357199986,303345.004900009,244900.550200022,258056.584100006,200287.533299997,4728.07170002488,92752.7422999847,103411.705300037,115943.036300014,132005.966100027,140242.703200027,258056.775600009,308446.879800002,262334.383100038,219822.505399992,194727.821600041,NA,302971.992600011,297459.293499996,190048.808699998,306601.084600028,NA,NA,NA,NA,NA,258049.505400006,154985.614800011,200280.481000023,303344.92990002,244900.479200005,257966.474300018,257918.514900026,306896.980300022,3999.47550002253,307766.09530003,3999.50020003598,307457.627600001,154984.818900004,253514.446299989,253479.182599986,4711.00780001143,NA,NA,149970.26229999,24,76556.9732000586,29,0,55
80,96,2575.78390666943,"a","speed","an2000he","0","b","a","0","0","0",59,3,700,"Tue Mar 21 10:59:10 2023",3,"sehr schwer","speed","Experiment.osexp","Bild_s1_b_18.png",1080,"he",2000,"an","blaue","C:/Users/steff/Documents/Universität/Master Psychologie/SS 2022/Masterarbeit/Experiment/subject-2.csv",0,0,1,"l",50,50,"l","l",716.544000024442,716.544000024442,2,219822.482999996,309617.207000032,257966.534800013,154985.799100017,253445.787300006,310334.71700002,309308.535700024,70751.1887000292,NA,253518.763800035,3998.93270002212,NA,248450.648900005,309315.427299996,308762.133200013,303345.004900009,244900.550200022,258056.584100006,200287.533299997,4728.07170002488,92752.7422999847,103411.705300037,115943.036300014,132005.966100027,140242.703200027,258056.775600009,310334.813599999,262334.383100038,219822.505399992,194727.821600041,NA,302971.992600011,308461.399000022,190048.808699998,306601.084600028,NA,NA,NA,NA,NA,258049.505400006,154985.614800011,200280.481000023,303344.92990002,244900.479200005,257966.474300018,257918.514900026,308756.836000015,3999.47550002253,309617.293099989,3999.50020003598,309308.443600021,154984.818900004,253514.446299989,253479.182599986,4711.00780001143,NA,NA,149970.26229999,24,77273.517200083,30,0,55
80.6451612903226,96,2516.12881290719,"a","speed","an2000he","1","o","l","0","0","1",60,3,700,"Tue Mar 21 10:59:10 2023",3,"sehr schwer","speed","Experiment.osexp","Bild_s1_o_3.png",1080,"he",2000,"an","blaue","C:/Users/steff/Documents/Universität/Master Psychologie/SS 2022/Masterarbeit/Experiment/subject-2.csv",0,0,0,"l",40,40,"l","l",726.476000039838,726.476000039838,2,219822.482999996,311511.299300008,257966.534800013,154985.799100017,253445.787300006,312238.578299992,311201.185400016,70751.1887000292,NA,253518.763800035,3998.93270002212,NA,248450.648900005,311208.441300027,310656.280099996,303345.004900009,244900.550200022,258056.584100006,200287.533299997,4728.07170002488,92752.7422999847,103411.705300037,115943.036300014,132005.966100027,140242.703200027,258056.775600009,312238.675700035,262334.383100038,219822.505399992,194727.821600041,NA,310355.482599989,308461.399000022,190048.808699998,306601.084600028,NA,NA,NA,NA,NA,258049.505400006,154985.614800011,200280.481000023,303344.92990002,244900.479200005,257966.474300018,257918.514900026,310650.907100004,3999.47550002253,311511.403199984,3999.50020003598,311201.106799999,154984.818900004,253514.446299989,253479.182599986,4711.00780001143,NA,NA,149970.26229999,25,77999.9932001228,31,0,55
81.25,96,2458.22927500376,"a","speed","an2000he","1","o","l","0","1","0",61,3,700,"Tue Mar 21 10:59:10 2023",3,"sehr schwer","speed","Experiment.osexp","Bild_s1_o_19.png",1080,"he",2000,"an","blaue","C:/Users/steff/Documents/Universität/Master Psychologie/SS 2022/Masterarbeit/Experiment/subject-2.csv",0,0,0,"l",45,45,"l","l",663.343599997461,663.343599997461,2,219822.482999996,313414.462100016,257966.534800013,154985.799100017,253445.787300006,314078.663800028,313106.473600026,70751.1887000292,NA,253518.763800035,3998.93270002212,NA,248450.648900005,313113.386399986,312558.087199985,303345.004900009,244900.550200022,258056.584100006,200287.533299997,4728.07170002488,92752.7422999847,103411.705300037,115943.036300014,132005.966100027,140242.703200027,258056.775600009,314078.739600023,262334.383100038,219822.505399992,194727.821600041,312257.536099991,310355.482599989,308461.399000022,190048.808699998,306601.084600028,NA,NA,NA,NA,NA,258049.505400006,154985.614800011,200280.481000023,303344.92990002,244900.479200005,257966.474300018,257918.514900026,312552.797799988,3999.47550002253,313414.547700027,3999.50020003598,313106.394300004,154984.818900004,253514.446299989,253479.182599986,4711.00780001143,NA,NA,149970.26229999,26,78663.3368001203,32,0,55
78.7878787878788,96,2404.91899091285,"a","speed","an2000he","0","b","a","0","0","0",62,3,700,"Tue Mar 21 10:59:10 2023",3,"sehr schwer","speed","Experiment.osexp","Bild_s1_b_15.png",1080,"he",2000,"an","blaue","C:/Users/steff/Documents/Universität/Master Psychologie/SS 2022/Masterarbeit/Experiment/subject-2.csv",0,1,0,"l",35,35,"l","l",698.989900003653,698.989900003653,2,219822.482999996,315266.811900015,257966.534800013,154985.799100017,253445.787300006,315966.882699984,314958.52059999,70751.1887000292,NA,253518.763800035,3998.93270002212,NA,248450.648900005,314965.774499986,314406.169600028,303345.004900009,244900.550200022,258056.584100006,200287.533299997,4728.07170002488,92752.7422999847,103411.705300037,115943.036300014,132005.966100027,140242.703200027,258056.775600009,315966.98050003,262334.383100038,219822.505399992,194727.821600041,312257.536099991,310355.482599989,308461.399000022,190048.808699998,314105.592900014,NA,NA,NA,NA,NA,258049.505400006,154985.614800011,200280.481000023,303344.92990002,244900.479200005,257966.474300018,257918.514900026,314400.836299988,3999.47550002253,315266.896300018,3999.50020003598,314958.438800008,154984.818900004,253514.446299989,253479.182599986,4711.00780001143,NA,NA,149970.26229999,26,79362.326700124,33,0,55
76.4705882352941,96,2358.58710294398,"a","speed","an2000he","0","b","a","0","0","0",63,3,700,"Tue Mar 21 10:59:10 2023",3,"sehr schwer","speed","Experiment.osexp","Bild_s1_b_1.png",1080,"he",2000,"an","blaue","C:/Users/steff/Documents/Universität/Master Psychologie/SS 2022/Masterarbeit/Experiment/subject-2.csv",0,0,1,"l",25,25,"l","l",829.634799971245,829.634799971245,2,219822.482999996,317136.155100015,257966.534800013,154985.799100017,253445.787300006,317966.641000006,316828.141300008,70751.1887000292,NA,253518.763800035,3998.93270002212,NA,248450.648900005,316835.056399985,316278.616200027,303345.004900009,244900.550200022,258056.584100006,200287.533299997,4728.07170002488,92752.7422999847,103411.705300037,115943.036300014,132005.966100027,140242.703200027,258056.775600009,317966.738799994,262334.383100038,219822.505399992,194727.821600041,312257.536099991,310355.482599989,315977.645800042,190048.808699998,314105.592900014,NA,NA,NA,NA,NA,258049.505400006,154985.614800011,200280.481000023,303344.92990002,244900.479200005,257966.474300018,257918.514900026,316273.073700024,3999.47550002253,317136.23980002,3999.50020003598,316828.063099994,154984.818900004,253514.446299989,253479.182599986,4711.00780001143,NA,NA,149970.26229999,26,80191.9615000952,34,0,55
77.1428571428571,96,2310.99287714543,"a","speed","an2000he","1","b","a","0","1","0",64,3,700,"Tue Mar 21 10:59:10 2023",2,"eher schwer","speed","Experiment.osexp","Bild_s2_b_12.png",1080,"he",2000,"an","blaue","C:/Users/steff/Documents/Universität/Master Psychologie/SS 2022/Masterarbeit/Experiment/subject-2.csv",0,0,0,"l",30,30,"a","a",692.789199994877,692.789199994877,2,219822.482999996,319176.878600032,257966.534800013,154985.799100017,253445.787300006,319870.667200012,318868.771000009,70751.1887000292,NA,253518.763800035,3998.93270002212,NA,248450.648900005,318875.969899993,318293.740299996,318367.002599989,244900.550200022,258056.584100006,200287.533299997,4728.07170002488,92752.7422999847,103411.705300037,115943.036300014,132005.966100027,140242.703200027,258056.775600009,319870.745700027,262334.383100038,219822.505399992,194727.821600041,312257.536099991,317993.137200014,315977.645800042,190048.808699998,314105.592900014,NA,NA,NA,NA,NA,258049.505400006,154985.614800011,200280.481000023,318366.928300005,244900.479200005,257966.474300018,257918.514900026,318288.368500012,3999.47550002253,319177.074300009,3999.50020003598,318868.689000024,154984.818900004,253514.446299989,253479.182599986,4711.00780001143,NA,NA,149970.26229999,27,80884.7507000901,35,0,55
77.7777777777778,96,2264.42419166981,"a","speed","an2000he","1","o","l","0","1","0",65,3,700,"Tue Mar 21 10:59:10 2023",2,"eher schwer","speed","Experiment.osexp","Bild_s2_o_13.png",1080,"he",2000,"an","blaue","C:/Users/steff/Documents/Universität/Master Psychologie/SS 2022/Masterarbeit/Experiment/subject-2.csv",0,0,0,"l",35,35,"l","l",634.520200022962,634.520200022962,2,219822.482999996,321043.270400027,257966.534800013,154985.799100017,253445.787300006,321678.608699993,320735.652300005,70751.1887000292,NA,253518.763800035,3998.93270002212,NA,248450.648900005,320742.645699997,320183.256499993,318367.002599989,244900.550200022,258056.584100006,200287.533299997,4728.07170002488,92752.7422999847,103411.705300037,115943.036300014,132005.966100027,140242.703200027,258056.775600009,321678.689600027,262334.383100038,219822.505399992,194727.821600041,312257.536099991,317993.137200014,315977.645800042,190048.808699998,319881.276400003,NA,NA,NA,NA,NA,258049.505400006,154985.614800011,200280.481000023,318366.928300005,244900.479200005,257966.474300018,257918.514900026,320177.373700019,3999.47550002253,321043.357599992,3999.50020003598,320735.57379999,154984.818900004,253514.446299989,253479.182599986,4711.00780001143,NA,NA,149970.26229999,28,81519.270900113,36,0,55
75.6756756756757,96,2220.86897567764,"a","speed","an2000he","0","b","a","0","0","0",66,3,700,"Tue Mar 21 10:59:10 2023",2,"eher schwer","speed","Experiment.osexp","Bild_s2_b_25.png",1080,"he",2000,"an","blaue","C:/Users/steff/Documents/Universität/Master Psychologie/SS 2022/Masterarbeit/Experiment/subject-2.csv",0,1,0,"l",25,25,"l","l",652.881199959666,652.881199959666,2,219822.482999996,322848.818900005,257966.534800013,154985.799100017,253445.787300006,323502.494800021,322540.198700037,70751.1887000292,NA,253518.763800035,3998.93270002212,NA,248450.648900005,322547.369699983,321994.144900003,318367.002599989,244900.550200022,258056.584100006,200287.533299997,4728.07170002488,92752.7422999847,103411.705300037,115943.036300014,132005.966100027,140242.703200027,258056.775600009,323502.591700002,262334.383100038,219822.505399992,194727.821600041,312257.536099991,317993.137200014,315977.645800042,190048.808699998,321693.719400035,NA,NA,NA,NA,NA,258049.505400006,154985.614800011,200280.481000023,318366.928300005,244900.479200005,257966.474300018,257918.514900026,321988.775200036,3999.47550002253,322848.990900035,3999.50020003598,322540.120700025,154984.818900004,253514.446299989,253479.182599986,4711.00780001143,NA,NA,149970.26229999,28,82172.1521000727,37,0,55
76.3157894736842,96,2190.02418421319,"a","speed","an2000he","1","o","l","0","0","1",67,3,700,"Tue Mar 21 10:59:10 2023",2,"eher schwer","speed","Experiment.osexp","Bild_s2_o_4.png",1080,"he",2000,"an","blaue","C:/Users/steff/Documents/Universität/Master Psychologie/SS 2022/Masterarbeit/Experiment/subject-2.csv",0,0,0,"l",15,15,"l","l",1048.76690002857,1048.76690002857,2,219822.482999996,324677.009300038,257966.534800013,154985.799100017,253445.787300006,325726.581000024,324369.173299987,70751.1887000292,NA,253518.763800035,3998.93270002212,NA,248450.648900005,324376.483300002,323828.008699988,318367.002599989,244900.550200022,258056.584100006,200287.533299997,4728.07170002488,92752.7422999847,103411.705300037,115943.036300014,132005.966100027,140242.703200027,258056.775600009,325726.677800005,262334.383100038,219822.505399992,194727.821600041,312257.536099991,317993.137200014,323527.011700033,190048.808699998,321693.719400035,NA,NA,NA,NA,NA,258049.505400006,154985.614800011,200280.481000023,318366.928300005,244900.479200005,257966.474300018,257918.514900026,323822.625300032,3999.47550002253,324677.09469999,3999.50020003598,324369.091700006,154984.818900004,253514.446299989,253479.182599986,4711.00780001143,NA,NA,149970.26229999,29,83220.9190001013,38,0,55
76.9230769230769,96,2149.74318718156,"a","speed","an2000he","1","o","l","0","1","0",68,3,700,"Tue Mar 21 10:59:10 2023",2,"eher schwer","speed","Experiment.osexp","Bild_s2_o_12.png",1080,"he",2000,"an","blaue","C:/Users/steff/Documents/Universität/Master Psychologie/SS 2022/Masterarbeit/Experiment/subject-2.csv",0,0,0,"l",20,20,"l","l",619.065299979411,619.065299979411,2,219822.482999996,326914.710699988,257966.534800013,154985.799100017,253445.787300006,327534.650699992,326606.850399985,70751.1887000292,NA,253518.763800035,3998.93270002212,NA,248450.648900005,326613.689100021,326041.768700001,318367.002599989,244900.550200022,258056.584100006,200287.533299997,4728.07170002488,92752.7422999847,103411.705300037,115943.036300014,132005.966100027,140242.703200027,258056.775600009,327534.728300001,262334.383100038,219822.505399992,194727.821600041,325740.460300003,317993.137200014,323527.011700033,190048.808699998,321693.719400035,NA,NA,NA,NA,NA,258049.505400006,154985.614800011,200280.481000023,318366.928300005,244900.479200005,257966.474300018,257918.514900026,326036.307300034,3999.47550002253,326914.806800021,3999.50020003598,326606.772000028,154984.818900004,253514.446299989,253479.182599986,4711.00780001143,NA,NA,149970.26229999,30,83839.9843000807,39,0,55
77.5,96,2113.05097000149,"a","speed","an2000he","1","o","l","0","1","0",69,3,700,"Tue Mar 21 10:59:10 2023",2,"eher schwer","speed","Experiment.osexp","Bild_s2_o_16.png",1080,"he",2000,"an","blaue","C:/Users/steff/Documents/Universität/Master Psychologie/SS 2022/Masterarbeit/Experiment/subject-2.csv",0,0,0,"l",25,25,"l","l",682.054499979131,682.054499979131,2,219822.482999996,328726.377799991,257966.534800013,154985.799100017,253445.787300006,329409.437599999,328418.472799996,70751.1887000292,NA,253518.763800035,3998.93270002212,NA,248450.648900005,328425.366999989,327863.55400004,318367.002599989,244900.550200022,258056.584100006,200287.533299997,4728.07170002488,92752.7422999847,103411.705300037,115943.036300014,132005.966100027,140242.703200027,258056.775600009,329409.515300009,262334.383100038,219822.505399992,194727.821600041,325740.460300003,317993.137200014,323527.011700033,190048.808699998,327563.0045,NA,NA,NA,NA,NA,258049.505400006,154985.614800011,200280.481000023,318366.928300005,244900.479200005,257966.474300018,257918.514900026,327858.260600013,3999.47550002253,328726.46450001,3999.50020003598,328418.368000013,154984.818900004,253514.446299989,253479.182599986,4711.00780001143,NA,NA,149970.26229999,31,84522.0388000598,40,0,55
78.0487804878049,96,2074.80845609879,"a","speed","an2000he","1","o","l","0","1","0",70,3,700,"Tue Mar 21 10:59:10 2023",2,"eher schwer","speed","Experiment.osexp","Bild_s2_o_11.png",1080,"he",2000,"an","blaue","C:/Users/steff/Documents/Universität/Master Psychologie/SS 2022/Masterarbeit/Experiment/subject-2.csv",0,0,0,"l",30,30,"l","l",545.107899990398,545.107899990398,2,219822.482999996,330588.583600009,257966.534800013,154985.799100017,253445.787300006,331134.672900022,330279.817300034,70751.1887000292,NA,253518.763800035,3998.93270002212,NA,248450.648900005,330286.877800012,329728.707500035,318367.002599989,244900.550200022,258056.584100006,200287.533299997,4728.07170002488,92752.7422999847,103411.705300037,115943.036300014,132005.966100027,140242.703200027,258056.775600009,331134.746900003,262334.383100038,219822.505399992,194727.821600041,325740.460300003,317993.137200014,323527.011700033,190048.808699998,329427.928799996,NA,NA,NA,NA,NA,258049.505400006,154985.614800011,200280.481000023,318366.928300005,244900.479200005,257966.474300018,257918.514900026,329723.360600008,3999.47550002253,330588.7735,3999.50020003598,330279.735499993,154984.818900004,253514.446299989,253479.182599986,4711.00780001143,NA,NA,149970.26229999,32,85067.1467000502,41,0,55
78.5714285714286,96,2037.73920238295,"a","speed","an2000he","1","b","a","0","1","0",71,3,700,"Tue Mar 21 10:59:10 2023",2,"eher schwer","speed","Experiment.osexp","Bild_s2_b_18.png",1080,"he",2000,"an","blaue","C:/Users/steff/Documents/Universität/Master Psychologie/SS 2022/Masterarbeit/Experiment/subject-2.csv",0,0,0,"l",35,35,"a","a",517.899800033774,517.899800033774,2,219822.482999996,332311.87179999,257966.534800013,154985.799100017,253445.787300006,332830.734700023,332004.177000024,70751.1887000292,NA,253518.763800035,3998.93270002212,NA,248450.648900005,332011.057400028,331458.369600005,318367.002599989,244900.550200022,258056.584100006,200287.533299997,4728.07170002488,92752.7422999847,103411.705300037,115943.036300014,132005.966100027,140242.703200027,258056.775600009,332830.81080002,262334.383100038,219822.505399992,194727.821600041,325740.460300003,317993.137200014,323527.011700033,190048.808699998,331157.769199985,NA,NA,NA,NA,NA,258049.505400006,154985.614800011,200280.481000023,318366.928300005,244900.479200005,257966.474300018,257918.514900026,331453.028800024,3999.47550002253,332311.956899997,3999.50020003598,332004.094900039,154984.818900004,253514.446299989,253479.182599986,4711.00780001143,NA,NA,149970.26229999,33,85585.046500084,42,0,55
76.7441860465116,96,2005.79614651276,"a","speed","an2000he","0","b","a","0","0","0",72,3,700,"Tue Mar 21 10:59:10 2023",3,"sehr schwer","speed","Experiment.osexp","Bild_s1_b_11.png",1080,"he",2000,"an","blaue","C:/Users/steff/Documents/Universität/Master Psychologie/SS 2022/Masterarbeit/Experiment/subject-2.csv",0,1,0,"l",25,25,"l","l",664.187799964566,664.187799964566,2,219822.482999996,334037.470000039,257966.534800013,154985.799100017,253445.787300006,334702.639800031,333729.673399997,70751.1887000292,NA,253518.763800035,3998.93270002212,NA,248450.648900005,333736.877900024,333146.863100003,333219.68790004,244900.550200022,258056.584100006,200287.533299997,4728.07170002488,92752.7422999847,103411.705300037,115943.036300014,132005.966100027,140242.703200027,258056.775600009,334702.734099992,262334.383100038,219822.505399992,194727.821600041,325740.460300003,317993.137200014,323527.011700033,190048.808699998,332845.992700022,NA,NA,NA,NA,NA,258049.505400006,154985.614800011,200280.481000023,333219.615000009,244900.479200005,257966.474300018,257918.514900026,333141.497900011,3999.47550002253,334037.674000021,3999.50020003598,333729.592900025,154984.818900004,253514.446299989,253479.182599986,4711.00780001143,NA,NA,149970.26229999,33,86249.2343000486,43,0,55
75,96,1976.96673409188,"a","speed","an2000he","0","b","a","0","0","0",73,3,700,"Tue Mar 21 10:59:10 2023",3,"sehr schwer","speed","Experiment.osexp","Bild_s1_b_21.png",1080,"he",2000,"an","blaue","C:/Users/steff/Documents/Universität/Master Psychologie/SS 2022/Masterarbeit/Experiment/subject-2.csv",0,0,1,"l",15,15,"l","l",737.301999994088,737.301999994088,2,219822.482999996,335884.387700004,257966.534800013,154985.799100017,253445.787300006,336622.655400017,335576.406700013,70751.1887000292,NA,253518.763800035,3998.93270002212,NA,248450.648900005,335583.798700012,335031.010999985,333219.68790004,244900.550200022,258056.584100006,200287.533299997,4728.07170002488,92752.7422999847,103411.705300037,115943.036300014,132005.966100027,140242.703200027,258056.775600009,336622.756900033,262334.383100038,219822.505399992,194727.821600041,325740.460300003,317993.137200014,334730.21780001,190048.808699998,332845.992700022,NA,NA,NA,NA,NA,258049.505400006,154985.614800011,200280.481000023,333219.615000009,244900.479200005,257966.474300018,257918.514900026,335025.65299999,3999.47550002253,335884.562799998,3999.50020003598,335576.273499988,154984.818900004,253514.446299989,253479.182599986,4711.00780001143,NA,NA,149970.26229999,33,86986.5363000426,44,0,55
73.3333333333333,96,1946.47577333445,"a","speed","an2000he","0","b","a","0","0","0",74,3,700,"Tue Mar 21 10:59:10 2023",3,"sehr schwer","speed","Experiment.osexp","Bild_s1_b_9.png",1080,"he",2000,"an","blaue","C:/Users/steff/Documents/Universität/Master Psychologie/SS 2022/Masterarbeit/Experiment/subject-2.csv",0,1,0,"l",5,5,"l","l",604.87350000767,604.87350000767,2,219822.482999996,337792.890199984,257966.534800013,154985.799100017,253445.787300006,338398.585600022,337484.956500004,70751.1887000292,NA,253518.763800035,3998.93270002212,NA,248450.648900005,337491.810300038,336941.098499985,333219.68790004,244900.550200022,258056.584100006,200287.533299997,4728.07170002488,92752.7422999847,103411.705300037,115943.036300014,132005.966100027,140242.703200027,258056.775600009,338398.68079999,262334.383100038,219822.505399992,194727.821600041,325740.460300003,336640.200600028,334730.21780001,190048.808699998,332845.992700022,NA,NA,NA,NA,NA,258049.505400006,154985.614800011,200280.481000023,333219.615000009,244900.479200005,257966.474300018,257918.514900026,336935.69459999,3999.47550002253,337792.977900011,3999.50020003598,337484.877300041,154984.818900004,253514.446299989,253479.182599986,4711.00780001143,NA,NA,149970.26229999,33,87591.4098000503,45,0,55
71.7391304347826,96,1918.77803695768,"a","speed","an2000he","0","o","l","0","0","0",75,3,700,"Tue Mar 21 10:59:10 2023",3,"sehr schwer","speed","Experiment.osexp","Bild_s1_o_23.png",1080,"he",2000,"an","blaue","C:/Users/steff/Documents/Universität/Master Psychologie/SS 2022/Masterarbeit/Experiment/subject-2.csv",0,1,0,"l",-5,-5,"a","a",672.379900002852,672.379900002852,2,219822.482999996,339581.278600032,257966.534800013,154985.799100017,253445.787300006,340254.747500003,339273.174100032,70751.1887000292,NA,253518.763800035,3998.93270002212,NA,248450.648900005,339280.467600038,338728.208400018,333219.68790004,244900.550200022,258056.584100006,200287.533299997,4728.07170002488,92752.7422999847,103411.705300037,115943.036300014,132005.966100027,140242.703200027,258056.775600009,340254.845699994,262334.383100038,219822.505399992,194727.821600041,325740.460300003,336640.200600028,338427.413500031,190048.808699998,332845.992700022,NA,NA,NA,NA,NA,258049.505400006,154985.614800011,200280.481000023,333219.615000009,244900.479200005,257966.474300018,257918.514900026,338722.848200006,3999.47550002253,339581.482000009,3999.50020003598,339273.091200041,154984.818900004,253514.446299989,253479.182599986,4711.00780001143,NA,NA,149970.26229999,33,88263.7897000532,46,0,55
70.2127659574468,96,1890.51118085255,"a","speed","an2000he","0","b","a","0","0","0",76,3,700,"Tue Mar 21 10:59:10 2023",3,"sehr schwer","speed","Experiment.osexp","Bild_s1_b_5.png",1080,"he",2000,"an","blaue","C:/Users/steff/Documents/Universität/Master Psychologie/SS 2022/Masterarbeit/Experiment/subject-2.csv",0,1,0,"l",-15,-15,"l","l",590.235800016671,590.235800016671,2,219822.482999996,341439.482600021,257966.534800013,154985.799100017,253445.787300006,342030.602400017,341131.124500011,70751.1887000292,NA,253518.763800035,3998.93270002212,NA,248450.648900005,341138.067400025,340582.821700023,333219.68790004,244900.550200022,258056.584100006,200287.533299997,4728.07170002488,92752.7422999847,103411.705300037,115943.036300014,132005.966100027,140242.703200027,258056.775600009,342030.701400014,262334.383100038,219822.505399992,194727.821600041,325740.460300003,336640.200600028,340282.185300021,190048.808699998,332845.992700022,NA,NA,NA,NA,NA,258049.505400006,154985.614800011,200280.481000023,333219.615000009,244900.479200005,257966.474300018,257918.514900026,340577.459699998,3999.47550002253,341439.566700021,3999.50020003598,341131.043300033,154984.818900004,253514.446299989,253479.182599986,4711.00780001143,NA,NA,149970.26229999,33,88854.0255000698,47,0,55
70.8333333333333,96,1865.3437395842,"a","speed","an2000he","1","o","l","0","1","0",77,3,700,"Tue Mar 21 10:59:10 2023",3,"sehr schwer","speed","Experiment.osexp","Bild_s1_o_10.png",1080,"he",2000,"an","blaue","C:/Users/steff/Documents/Universität/Master Psychologie/SS 2022/Masterarbeit/Experiment/subject-2.csv",0,0,0,"l",-10,-10,"l","l",682.47399997199,682.47399997199,2,219822.482999996,343203.30210001,257966.534800013,154985.799100017,253445.787300006,343886.720400013,342894.950899994,70751.1887000292,NA,253518.763800035,3998.93270002212,NA,248450.648900005,342902.278300026,342345.235500019,333219.68790004,244900.550200022,258056.584100006,200287.533299997,4728.07170002488,92752.7422999847,103411.705300037,115943.036300014,132005.966100027,140242.703200027,258056.775600009,343886.798600026,262334.383100038,219822.505399992,194727.821600041,325740.460300003,336640.200600028,342044.533200038,190048.808699998,332845.992700022,NA,NA,NA,NA,NA,258049.505400006,154985.614800011,200280.481000023,333219.615000009,244900.479200005,257966.474300018,257918.514900026,342339.858199994,3999.47550002253,343203.389200033,3999.50020003598,342894.869000011,154984.818900004,253514.446299989,253479.182599986,4711.00780001143,NA,NA,149970.26229999,34,89536.4995000418,48,0,55
69.3877551020408,96,1843.16226122521,"a","speed","an2000he","0","o","l","0","0","0",78,3,700,"Tue Mar 21 10:59:10 2023",3,"sehr schwer","speed","Experiment.osexp","Bild_s1_o_6.png",1080,"he",2000,"an","blaue","C:/Users/steff/Documents/Universität/Master Psychologie/SS 2022/Masterarbeit/Experiment/subject-2.csv",0,0,1,"l",-20,-20,"a","a",778.451299993321,778.451299993321,2,219822.482999996,345075.223400025,257966.534800013,154985.799100017,253445.787300006,345854.753100022,344767.256500025,70751.1887000292,NA,253518.763800035,3998.93270002212,NA,248450.648900005,344774.500400003,344215.768099995,333219.68790004,244900.550200022,258056.584100006,200287.533299997,4728.07170002488,92752.7422999847,103411.705300037,115943.036300014,132005.966100027,140242.703200027,258056.775600009,345854.851700016,262334.383100038,219822.505399992,194727.821600041,325740.460300003,336640.200600028,342044.533200038,190048.808699998,343915.491399996,NA,NA,NA,NA,NA,258049.505400006,154985.614800011,200280.481000023,333219.615000009,244900.479200005,257966.474300018,257918.514900026,344210.386499995,3999.47550002253,345075.404000003,3999.50020003598,344767.169900006,154984.818900004,253514.446299989,253479.182599986,4711.00780001143,NA,NA,149970.26229999,34,90314.9508000352,49,0,55
68,96,1824.94023000123,"a","speed","an2000he","0","o","l","0","0","0",79,3,700,"Tue Mar 21 10:59:10 2023",3,"sehr schwer","speed","Experiment.osexp","Bild_s1_o_11.png",1080,"he",2000,"an","blaue","C:/Users/steff/Documents/Universität/Master Psychologie/SS 2022/Masterarbeit/Experiment/subject-2.csv",0,0,1,"l",-30,-30,"a","a",932.060700026341,932.060700026341,2,219822.482999996,347033.612300002,257966.534800013,154985.799100017,253445.787300006,347966.653399984,346724.918599997,70751.1887000292,NA,253518.763800035,3998.93270002212,NA,248450.648900005,346732.283800025,346181.340300012,333219.68790004,244900.550200022,258056.584100006,200287.533299997,4728.07170002488,92752.7422999847,103411.705300037,115943.036300014,132005.966100027,140242.703200027,258056.775600009,347966.750400024,262334.383100038,219822.505399992,194727.821600041,325740.460300003,345880.948200007,342044.533200038,190048.808699998,343915.491399996,NA,NA,NA,NA,NA,258049.505400006,154985.614800011,200280.481000023,333219.615000009,244900.479200005,257966.474300018,257918.514900026,346175.92780001,3999.47550002253,347033.805000014,3999.50020003598,346724.837100017,154984.818900004,253514.446299989,253479.182599986,4711.00780001143,NA,NA,149970.26229999,34,91247.0115000615,50,0,55
50,96,14903.3368999953,"a","accuracy","an2000he","0","o","l","0","0","0",80,4,700,"Tue Mar 21 10:59:10 2023",3,"sehr schwer","speed","Experiment.osexp","Bild_s1_o_7.png",1080,"he",2000,"an","blaue","C:/Users/steff/Documents/Universität/Master Psychologie/SS 2022/Masterarbeit/Experiment/subject-2.csv",1,0,0,"l",-40,-10,"a","a",4872.24789999891,4872.24789999891,2,219822.482999996,379301.494000014,257966.534800013,154985.799100017,353412.941500021,384174.648499989,378993.23349999,70751.1887000292,NA,253518.763800035,3998.93270002212,348417.203399993,248450.648900005,379000.352300005,348277.803100005,378463.484700012,244900.550200022,353527.289599995,200287.533299997,4728.07170002488,92752.7422999847,103411.705300037,115943.036300014,132005.966100027,140242.703200027,353527.390600007,384174.722200027,378462.617099984,219822.505399992,194727.821600041,325740.460300003,347977.491500031,342044.533200038,190048.808699998,343915.491399996,NA,NA,NA,NA,NA,353520.825200016,154985.614800011,200280.481000023,378463.439500018,244900.479200005,257966.474300018,257918.514900026,348272.466499999,3999.47550002253,379301.582799992,3999.50020003598,378993.028900004,154984.818900004,253514.446299989,253479.182599986,4711.00780001143,NA,NA,149970.26229999,1,29806.6737999907,2,0,25
66.6666666666667,96,10525.4599333275,"a","accuracy","an2000he","1","o","l","1","0","0",81,4,700,"Tue Mar 21 10:59:10 2023",3,"sehr schwer","speed","Experiment.osexp","Bild_s1_o_25.png",1080,"he",2000,"an","blaue","C:/Users/steff/Documents/Universität/Master Psychologie/SS 2022/Masterarbeit/Experiment/subject-2.csv",0,0,0,"l",-35,-5,"l","l",1769.70599999186,1769.70599999186,2,219822.482999996,386339.952700015,257966.534800013,154985.799100017,353412.941500021,388110.593500023,386029.188500019,70751.1887000292,NA,253518.763800035,3998.93270002212,348417.203399993,248450.648900005,386035.932800034,385499.4037,378463.484700012,244900.550200022,353527.289599995,200287.533299997,4728.07170002488,92752.7422999847,103411.705300037,115943.036300014,132005.966100027,140242.703200027,353527.390600007,388110.667600005,378462.617099984,219822.505399992,384197.451699991,325740.460300003,347977.491500031,342044.533200038,190048.808699998,343915.491399996,NA,NA,NA,NA,NA,353520.825200016,154985.614800011,200280.481000023,378463.439500018,244900.479200005,257966.474300018,257918.514900026,385493.932600017,3999.47550002253,386340.102599992,3999.50020003598,386029.114300036,154984.818900004,253514.446299989,253479.182599986,4711.00780001143,384498.435900023,NA,149970.26229999,2,31576.3797999825,3,0,25
