"accuracy","anzahl_gruppen","avg_rt","blauetaste","block","code","correct","correct_colour","correct_response","correct1","correct2","correct3","count_bildstimulus_3_1","count_block","cutoff","datetime","difficulty","difficulty_f","erstebedingung","experiment_file","filename","height","id_geburtsort","id_jahr","id_vater","linketaste","logfile","loose1","loose2","loose3","orangenetaste","punkte1","punkteimblock","response","response_tasteresponse_3_1","response_time","response_time_tasteresponse_3_1","subject_nr","time_bildershuffle","time_bildstimulus_3_1","time_block","time_block_tut","time_blockwerte_zuruecksetzten","time_cutoff_werte_und_punkte_3_1","time_definecorrectcolour_3_1","time_eingabemaske_kuerzel_python","time_ende_experimentierungsphase","time_ende_tutorial_1","time_experiment","time_feedback_serie","time_feedback_tutorial","time_fixationcross_3_1","time_grauesbild_3_1","time_gruppe_block","time_gruppe_tutorial","time_instruktionen_block","time_instruktionen_tutorial_1","time_introduction_1","time_introduction_2_1","time_introduction_3_punkte","time_introduction_3_speed","time_introduction_4_accuracy","time_introduction_5_feedback","time_leertaste_fuer_naechsten_bildschirm","time_logger_3_1","time_loop_block","time_loop_block_tut","time_minifeedbacknegativ_acc","time_minifeedbacknegativ_speed_slow","time_minifeedbacknegativ_speed_slowandwrong","time_minifeedbacknegativ_speed_wrong","time_minifeedbackpositiv_acc","time_minifeedbackpositiv_speed","time_new_inline_script","time_pause_zwischen_serie_1","time_pause_zwischen_serie_2","time_reset_feedback","time_reset_feedback_1","time_sequenz_block","time_sequenz_block_tut","time_sequenz_block_tut_1","time_sequenz_gruppe","time_sequenz_gruppe_tut","time_sequenz_serie","time_serie","time_set_to_zero","time_start","time_tasteresponse_3_1","time_testloopprepareglitchtutorial","time_trial_3_1","time_tutorial","time_tutorial_ende","time_tutorial_wiederholungscheck","time_vorgeplaenkel","time_warnhinweis_3sek","time_warnhinweis_5sek","time_warnung_tutorial_1","total_correct","total_response_time","total_responses","tutorial","tutorialpunkte"
100,96,113601.468222229,"l","accuracy","ba1999wi","1","b","l","1","0","0",0,1,700,"Tue Mar 28 13:13:43 2023",3,"sehr schwer","speed","Experiment.osexp","Bild_s1_b_23.png",1080,"wi",1999,"ba","orangene","C:/Users/steff/Documents/Universität/Master Psychologie/SS 2022/Masterarbeit/Experiment/subject-7.csv",0,0,0,"a",5,5,"l","l",1967.05470001325,1967.05470001325,7,NA,248668.44430007,NA,233958.187200013,NA,250636.241500033,248360.140200006,67788.914600038,NA,NA,3999.34530002065,NA,NA,248367.260200088,NA,NA,247837.072500028,NA,234052.549000015,4744.15070004761,93438.2806000067,107249.208700028,127268.731000018,146611.809000024,174544.586000033,234052.653699997,250636.311899987,NA,247836.129400064,NA,NA,NA,NA,NA,NA,NA,NA,NA,NA,NA,NA,233958.005600027,234045.495300088,NA,247837.028600043,NA,NA,NA,3999.65300003532,248668.534500059,3999.67789999209,248359.946000041,233957.212400041,NA,NA,4727.71290002856,NA,NA,182687.95130006,9,1022413.21400006,9,1,0
90,96,102316.749070014,"l","accuracy","ba1999wi","0","b","l","0","0","0",1,1,700,"Tue Mar 28 13:13:43 2023",3,"sehr schwer","speed","Experiment.osexp","Bild_s1_b_10.png",1080,"wi",1999,"ba","orangene","C:/Users/steff/Documents/Universität/Master Psychologie/SS 2022/Masterarbeit/Experiment/subject-7.csv",1,0,0,"a",-5,-5,"a","a",754.276700085029,754.276700085029,7,NA,251817.233700072,NA,233958.187200013,NA,252572.19960005,251509.49820003,67788.914600038,NA,NA,3999.34530002065,NA,NA,251516.512600007,250972.190500004,NA,247837.072500028,NA,234052.549000015,4744.15070004761,93438.2806000067,107249.208700028,127268.731000018,146611.809000024,174544.586000033,234052.653699997,252572.267400101,NA,247836.129400064,NA,NA,NA,NA,250671.347700059,NA,NA,NA,NA,NA,NA,NA,233958.005600027,234045.495300088,NA,247837.028600043,NA,NA,250966.768500046,3999.65300003532,251817.330899998,3999.67789999209,251509.420800023,233957.212400041,NA,NA,4727.71290002856,NA,NA,182687.95130006,9,1023167.49070014,10,1,0
90.9090909090909,96,93174.7513636523,"l","accuracy","ba1999wi","1","b","l","1","0","0",2,1,700,"Tue Mar 28 13:13:43 2023",2,"eher schwer","speed","Experiment.osexp","Bild_s2_b_4.png",1080,"wi",1999,"ba","orangene","C:/Users/steff/Documents/Universität/Master Psychologie/SS 2022/Masterarbeit/Experiment/subject-7.csv",0,0,0,"a",0,0,"l","l",1754.7743000323,1754.7743000323,7,NA,253776.725600008,NA,233958.187200013,NA,255532.371600042,253468.773700064,67788.914600038,NA,NA,3999.34530002065,NA,NA,253475.585800014,252896.101500024,NA,252966.878000065,NA,234052.549000015,4744.15070004761,93438.2806000067,107249.208700028,127268.731000018,146611.809000024,174544.586000033,234052.653699997,255532.438600087,NA,247836.129400064,252595.651800046,NA,NA,NA,250671.347700059,NA,NA,NA,NA,NA,NA,NA,233958.005600027,234045.495300088,NA,252966.806699988,NA,NA,252890.742300078,3999.65300003532,253776.814899989,3999.67789999209,253468.695200048,233957.212400041,NA,NA,4727.71290002856,NA,NA,182687.95130006,10,1024922.26500018,11,1,0
91.6666666666667,96,85490.7265500127,"l","accuracy","ba1999wi","1","o","a","1","0","0",3,1,700,"Tue Mar 28 13:13:43 2023",2,"eher schwer","speed","Experiment.osexp","Bild_s2_o_14.png",1080,"wi",1999,"ba","orangene","C:/Users/steff/Documents/Universität/Master Psychologie/SS 2022/Masterarbeit/Experiment/subject-7.csv",0,0,0,"a",5,5,"a","a",966.453599976376,966.453599976376,7,NA,256693.062500097,NA,233958.187200013,NA,257660.251700087,256384.97340004,67788.914600038,NA,NA,3999.34530002065,NA,NA,256391.939399997,255858.640899998,NA,252966.878000065,NA,234052.549000015,4744.15070004761,93438.2806000067,107249.208700028,127268.731000018,146611.809000024,174544.586000033,234052.653699997,257660.319600021,NA,247836.129400064,252595.651800046,NA,NA,NA,255557.887200033,NA,NA,NA,NA,NA,NA,NA,233958.005600027,234045.495300088,NA,252966.806699988,NA,NA,255853.281800053,3999.65300003532,256693.153400091,3999.67789999209,256384.894800023,233957.212400041,NA,NA,4727.71290002856,NA,NA,182687.95130006,11,1025888.71860015,12,1,0
92.3076923076923,96,79008.0755230917,"l","accuracy","ba1999wi","1","o","a","1","0","0",4,1,700,"Tue Mar 28 13:13:43 2023",1,"eher leicht","speed","Experiment.osexp","Bild_s3_o_21.png",1080,"wi",1999,"ba","orangene","C:/Users/steff/Documents/Universität/Master Psychologie/SS 2022/Masterarbeit/Experiment/subject-7.csv",0,0,0,"a",10,10,"a","a",1216.26320003998,1216.26320003998,7,NA,258859.234900097,NA,233958.187200013,NA,260076.056800084,258550.802400103,67788.914600038,NA,NA,3999.34530002065,NA,NA,258557.733500027,257986.019200063,NA,258055.371400085,NA,234052.549000015,4744.15070004761,93438.2806000067,107249.208700028,127268.731000018,146611.809000024,174544.586000033,234052.653699997,260076.126400032,NA,247836.129400064,252595.651800046,NA,NA,NA,257684.602700057,NA,NA,NA,NA,NA,NA,NA,233958.005600027,234045.495300088,NA,258055.295300088,NA,NA,257980.687100091,3999.65300003532,258859.329300001,3999.67789999209,258550.723700086,233957.212400041,NA,NA,4727.71290002856,NA,NA,182687.95130006,12,1027104.98180019,13,1,0
92.8571428571429,96,73471.6464500109,"l","accuracy","ba1999wi","1","o","a","1","0","0",5,1,700,"Tue Mar 28 13:13:43 2023",1,"eher leicht","speed","Experiment.osexp","Bild_s3_o_7.png",1080,"wi",1999,"ba","orangene","C:/Users/steff/Documents/Universität/Master Psychologie/SS 2022/Masterarbeit/Experiment/subject-7.csv",0,0,0,"a",15,15,"a","a",1498.06849996094,1498.06849996094,7,NA,261233.435700065,NA,233958.187200013,NA,262732.212200062,260925.278800074,67788.914600038,NA,NA,3999.34530002065,NA,NA,260932.254799991,260394.728700048,NA,258055.371400085,NA,234052.549000015,4744.15070004761,93438.2806000067,107249.208700028,127268.731000018,146611.809000024,174544.586000033,234052.653699997,262732.283900026,NA,247836.129400064,252595.651800046,NA,NA,NA,260094.665899989,NA,NA,NA,NA,NA,NA,NA,233958.005600027,234045.495300088,NA,258055.295300088,NA,NA,260389.476899989,3999.65300003532,261233.524700045,3999.67789999209,260925.201500067,233957.212400041,NA,NA,4727.71290002856,NA,NA,182687.95130006,13,1028603.05030015,14,1,0
93.3333333333333,96,68645.7380000114,"l","accuracy","ba1999wi","1","o","a","1","0","0",6,1,700,"Tue Mar 28 13:13:43 2023",0,"sehr leicht","speed","Experiment.osexp","Bild_s4_o_10.png",1080,"wi",1999,"ba","orangene","C:/Users/steff/Documents/Universität/Master Psychologie/SS 2022/Masterarbeit/Experiment/subject-7.csv",0,0,0,"a",20,20,"a","a",1083.01970001776,1083.01970001776,7,NA,263936.47700001,NA,233958.187200013,NA,265020.26140003,263628.387000063,67788.914600038,NA,NA,3999.34530002065,NA,NA,263635.60690009,263055.979800061,NA,263134.940700023,NA,234052.549000015,4744.15070004761,93438.2806000067,107249.208700028,127268.731000018,146611.809000024,174544.586000033,234052.653699997,265020.330300089,NA,247836.129400064,252595.651800046,NA,NA,NA,262755.434700055,NA,NA,NA,NA,NA,NA,NA,233958.005600027,234045.495300088,NA,263134.864200023,NA,NA,263050.604799995,3999.65300003532,263936.566899996,3999.67789999209,263628.307200037,233957.212400041,NA,NA,4727.71290002856,NA,NA,182687.95130006,14,1029686.07000017,15,1,0
93.75,96,64394.4715125108,"l","accuracy","ba1999wi","1","b","l","1","0","0",7,1,700,"Tue Mar 28 13:13:43 2023",0,"sehr leicht","speed","Experiment.osexp","Bild_s4_b_22.png",1080,"wi",1999,"ba","orangene","C:/Users/steff/Documents/Universität/Master Psychologie/SS 2022/Masterarbeit/Experiment/subject-7.csv",0,0,0,"a",25,25,"l","l",625.474200001918,625.474200001918,7,NA,266185.929300031,NA,233958.187200013,NA,266812.09900009,265878.131000092,67788.914600038,NA,NA,3999.34530002065,NA,NA,265885.153500014,265345.6284001,NA,263134.940700023,NA,234052.549000015,4744.15070004761,93438.2806000067,107249.208700028,127268.731000018,146611.809000024,174544.586000033,234052.653699997,266812.167800032,NA,247836.129400064,252595.651800046,NA,NA,NA,265044.86350005,NA,NA,NA,NA,NA,NA,NA,233958.005600027,234045.495300088,NA,263134.864200023,NA,NA,265340.198700083,3999.65300003532,266186.102200067,3999.67789999209,265878.05290008,233957.212400041,NA,NA,4727.71290002856,NA,NA,182687.95130006,15,1030311.54420017,16,1,0
94.1176470588235,96,60651.5818882446,"l","accuracy","ba1999wi","1","b","l","1","0","0",8,1,700,"Tue Mar 28 13:13:43 2023",0,"sehr leicht","speed","Experiment.osexp","Bild_s4_b_23.png",1080,"wi",1999,"ba","orangene","C:/Users/steff/Documents/Universität/Master Psychologie/SS 2022/Masterarbeit/Experiment/subject-7.csv",0,0,0,"a",30,30,"l","l",765.3478999855,765.3478999855,7,NA,268014.14990006,NA,233958.187200013,NA,268780.316899996,267706.1522,67788.914600038,NA,NA,3999.34530002065,NA,NA,267713.080900023,267140.919700032,NA,267212.493800092,NA,234052.549000015,4744.15070004761,93438.2806000067,107249.208700028,127268.731000018,146611.809000024,174544.586000033,234052.653699997,268780.388100073,NA,247836.129400064,252595.651800046,NA,NA,NA,266840.262100101,NA,NA,NA,NA,NA,NA,NA,233958.005600027,234045.495300088,NA,267212.419099989,NA,NA,267135.592000093,3999.65300003532,268014.236600022,3999.67789999209,267706.073800102,233957.212400041,NA,NA,4727.71290002856,NA,NA,182687.95130006,16,1031076.89210016,17,1,0
94.4444444444444,96,57328.3251611218,"l","accuracy","ba1999wi","1","o","a","1","0","0",9,1,700,"Tue Mar 28 13:13:43 2023",0,"sehr leicht","speed","Experiment.osexp","Bild_s4_o_15.png",1080,"wi",1999,"ba","orangene","C:/Users/steff/Documents/Universität/Master Psychologie/SS 2022/Masterarbeit/Experiment/subject-7.csv",0,0,0,"a",35,35,"a","a",832.960800034925,832.960800034925,7,NA,269946.501100087,NA,233958.187200013,NA,270780.104900012,269638.598500052,67788.914600038,NA,NA,3999.34530002065,NA,NA,269645.553700044,269099.3741001,NA,267212.493800092,NA,234052.549000015,4744.15070004761,93438.2806000067,107249.208700028,127268.731000018,146611.809000024,174544.586000033,234052.653699997,270780.173300067,NA,247836.129400064,252595.651800046,NA,NA,NA,268798.784499988,NA,NA,NA,NA,NA,NA,NA,233958.005600027,234045.495300088,NA,267212.419099989,NA,NA,269094.083300093,3999.65300003532,269946.587900049,3999.67789999209,269638.518600026,233957.212400041,NA,NA,4727.71290002856,NA,NA,182687.95130006,17,1031909.85290019,18,1,0
94.7368421052632,96,54347.7219894872,"l","accuracy","ba1999wi","1","b","l","1","0","0",10,1,700,"Tue Mar 28 13:13:43 2023",1,"eher leicht","speed","Experiment.osexp","Bild_s3_b_18.png",1080,"wi",1999,"ba","orangene","C:/Users/steff/Documents/Universität/Master Psychologie/SS 2022/Masterarbeit/Experiment/subject-7.csv",0,0,0,"a",40,40,"l","l",696.864900062792,696.864900062792,7,NA,271986.582600046,NA,233958.187200013,NA,272684.262600029,271678.698700038,67788.914600038,NA,NA,3999.34530002065,NA,NA,271685.599200078,271104.357800097,NA,271177.033100044,NA,234052.549000015,4744.15070004761,93438.2806000067,107249.208700028,127268.731000018,146611.809000024,174544.586000033,234052.653699997,272684.331100085,NA,247836.129400064,252595.651800046,NA,NA,NA,270803.638100042,NA,NA,NA,NA,NA,NA,NA,233958.005600027,234045.495300088,NA,271176.961000077,NA,NA,271099.002800067,3999.65300003532,271986.667899997,3999.67789999209,271678.621800034,233957.212400041,NA,NA,4727.71290002856,NA,NA,182687.95130006,18,1032606.71780026,19,1,0
95,96,51679.6930000128,"l","accuracy","ba1999wi","1","b","l","1","0","0",11,1,700,"Tue Mar 28 13:13:43 2023",1,"eher leicht","speed","Experiment.osexp","Bild_s3_b_17.png",1080,"wi",1999,"ba","orangene","C:/Users/steff/Documents/Universität/Master Psychologie/SS 2022/Masterarbeit/Experiment/subject-7.csv",0,0,0,"a",45,45,"l","l",987.142199999653,987.142199999653,7,NA,273856.329300092,NA,233958.187200013,NA,274844.314599992,273548.71880007,67788.914600038,NA,NA,3999.34530002065,NA,NA,273555.444300058,273008.8500001,NA,271177.033100044,NA,234052.549000015,4744.15070004761,93438.2806000067,107249.208700028,127268.731000018,146611.809000024,174544.586000033,234052.653699997,274844.384500058,NA,247836.129400064,252595.651800046,NA,NA,NA,272708.46330002,NA,NA,NA,NA,NA,NA,NA,233958.005600027,234045.495300088,NA,271176.961000077,NA,NA,273003.516800003,3999.65300003532,273856.421800097,3999.67789999209,273548.637500033,233957.212400041,NA,NA,4727.71290002856,NA,NA,182687.95130006,19,1033593.86000026,20,1,0
95.2380952380952,96,49255.3937666761,"l","accuracy","ba1999wi","1","o","a","1","0","0",12,1,700,"Tue Mar 28 13:13:43 2023",2,"eher schwer","speed","Experiment.osexp","Bild_s2_o_6.png",1080,"wi",1999,"ba","orangene","C:/Users/steff/Documents/Universität/Master Psychologie/SS 2022/Masterarbeit/Experiment/subject-7.csv",0,0,0,"a",50,50,"a","a",769.409099943005,769.409099943005,7,NA,276041.949400096,NA,233958.187200013,NA,276812.314300099,275734.070400009,67788.914600038,NA,NA,3999.34530002065,NA,NA,275741.096000071,275159.055200056,NA,275230.626800098,NA,234052.549000015,4744.15070004761,93438.2806000067,107249.208700028,127268.731000018,146611.809000024,174544.586000033,234052.653699997,276812.383200042,NA,247836.129400064,252595.651800046,NA,NA,NA,274858.547500102,NA,NA,NA,NA,NA,NA,NA,233958.005600027,234045.495300088,NA,275230.553000001,NA,NA,275153.665499995,3999.65300003532,276042.127900058,3999.67789999209,275733.992299996,233957.212400041,NA,NA,4727.71290002856,NA,NA,182687.95130006,20,1034363.2691002,21,1,0
95.4545454545454,96,47048.5435000049,"l","accuracy","ba1999wi","1","b","l","1","0","0",13,1,700,"Tue Mar 28 13:13:43 2023",2,"eher schwer","speed","Experiment.osexp","Bild_s2_b_9.png",1080,"wi",1999,"ba","orangene","C:/Users/steff/Documents/Universität/Master Psychologie/SS 2022/Masterarbeit/Experiment/subject-7.csv",0,0,0,"a",55,55,"l","l",704.687899909914,704.687899909914,7,NA,277978.796500014,NA,233958.187200013,NA,278684.179800097,277671.3857,67788.914600038,NA,NA,3999.34530002065,NA,NA,277678.413500078,277129.326099996,NA,275230.626800098,NA,234052.549000015,4744.15070004761,93438.2806000067,107249.208700028,127268.731000018,146611.809000024,174544.586000033,234052.653699997,278684.247100027,NA,247836.129400064,252595.651800046,NA,NA,NA,276828.401400009,NA,NA,NA,NA,NA,NA,NA,233958.005600027,234045.495300088,NA,275230.553000001,NA,NA,277123.940000078,3999.65300003532,277978.8842001,3999.67789999209,277671.306400094,233957.212400041,NA,NA,4727.71290002856,NA,NA,182687.95130006,21,1035067.95700011,22,1,0
95.6521739130435,96,45040.1901391375,"l","accuracy","ba1999wi","1","o","a","1","0","0",14,1,700,"Tue Mar 28 13:13:43 2023",3,"sehr schwer","speed","Experiment.osexp","Bild_s1_o_7.png",1080,"wi",1999,"ba","orangene","C:/Users/steff/Documents/Universität/Master Psychologie/SS 2022/Masterarbeit/Experiment/subject-7.csv",0,0,0,"a",60,60,"a","a",856.416200054809,856.416200054809,7,NA,279891.060700058,NA,233958.187200013,NA,280748.214300023,279582.933800062,67788.914600038,NA,NA,3999.34530002065,NA,NA,279589.934100048,279012.940200046,NA,279083.136900095,NA,234052.549000015,4744.15070004761,93438.2806000067,107249.208700028,127268.731000018,146611.809000024,174544.586000033,234052.653699997,280748.281900072,NA,247836.129400064,252595.651800046,NA,NA,NA,278712.367400061,NA,NA,NA,NA,NA,NA,NA,233958.005600027,234045.495300088,NA,279083.059900091,NA,NA,279007.59980001,3999.65300003532,279891.150200041,3999.67789999209,279582.852400024,233957.212400041,NA,NA,4727.71290002856,NA,NA,182687.95130006,22,1035924.37320016,23,1,0
91.6666666666667,96,43200.1363333402,"l","accuracy","ba1999wi","0","o","a","0","0","0",15,1,700,"Tue Mar 28 13:13:43 2023",3,"sehr schwer","speed","Experiment.osexp","Bild_s1_o_22.png",1080,"wi",1999,"ba","orangene","C:/Users/steff/Documents/Universität/Master Psychologie/SS 2022/Masterarbeit/Experiment/subject-7.csv",1,0,0,"a",50,50,"l","l",878.89880000148,878.89880000148,7,NA,281916.588600026,NA,233958.187200013,NA,282796.203400008,281608.710000059,67788.914600038,NA,NA,3999.34530002065,NA,NA,281615.95700006,281077.831400093,NA,279083.136900095,NA,234052.549000015,4744.15070004761,93438.2806000067,107249.208700028,127268.731000018,146611.809000024,174544.586000033,234052.653699997,282796.272000065,NA,247836.129400064,252595.651800046,NA,NA,NA,280776.117700036,NA,NA,NA,NA,NA,NA,NA,233958.005600027,234045.495300088,NA,279083.059900091,NA,NA,281072.314199992,3999.65300003532,281916.668000049,3999.67789999209,281608.63240005,233957.212400041,NA,NA,4727.71290002856,NA,NA,182687.95130006,22,1036803.27200016,24,1,0
100,96,10535.2349000168,"l","speed","ba1999wi","1","b","l","0","0","1",16,2,700,"Tue Mar 28 13:13:43 2023",3,"sehr schwer","speed","Experiment.osexp","Bild_s1_b_11.png",1080,"wi",1999,"ba","orangene","C:/Users/steff/Documents/Universität/Master Psychologie/SS 2022/Masterarbeit/Experiment/subject-7.csv",0,0,0,"a",40,-10,"l","l",758.061700034887,758.061700034887,7,NA,309685.395300039,NA,233958.187200013,288260.003700037,310444.574000081,309374.593300046,67788.914600038,NA,NA,3999.34530002065,NA,283264.749100083,309382.75530003,283125.35690004,NA,308701.720000012,NA,288387.019200018,4744.15070004761,93438.2806000067,107249.208700028,127268.731000018,146611.809000024,174544.586000033,288387.162900064,310444.760599989,NA,308700.507400092,282824.705000035,NA,NA,NA,280776.117700036,NA,NA,NA,NA,NA,NA,NA,233958.005600027,288379.984800005,NA,308701.665300061,NA,NA,283119.904300082,3999.65300003532,309685.543800006,3999.67789999209,309374.320100062,233957.212400041,NA,NA,4727.71290002856,NA,NA,182687.95130006,2,21070.4698000336,2,1,50
66.6666666666667,96,7195.49270001395,"l","speed","ba1999wi","0","b","l","0","0","0",17,2,700,"Tue Mar 28 13:13:43 2023",3,"sehr schwer","speed","Experiment.osexp","Bild_s1_b_1.png",1080,"wi",1999,"ba","orangene","C:/Users/steff/Documents/Universität/Master Psychologie/SS 2022/Masterarbeit/Experiment/subject-7.csv",0,1,0,"a",30,-20,"a","a",516.008300008252,516.008300008252,7,NA,311911.450400017,NA,233958.187200013,288260.003700037,312428.188999998,311602.064400096,67788.914600038,NA,NA,3999.34530002065,NA,283264.749100083,311610.400500009,310762.37640006,NA,308701.720000012,NA,288387.019200018,4744.15070004761,93438.2806000067,107249.208700028,127268.731000018,146611.809000024,174544.586000033,288387.162900064,312428.285500035,NA,308700.507400092,282824.705000035,310460.760900052,NA,NA,280776.117700036,NA,NA,NA,NA,NA,NA,NA,233958.005600027,288379.984800005,NA,308701.665300061,NA,NA,310755.883000093,3999.65300003532,311911.545600044,3999.67789999209,311601.956400089,233957.212400041,NA,NA,4727.71290002856,NA,NA,182687.95130006,2,21586.4781000419,3,1,50
50,96,5558.37172499741,"l","speed","ba1999wi","0","o","a","0","0","0",18,2,700,"Tue Mar 28 13:13:43 2023",2,"eher schwer","speed","Experiment.osexp","Bild_s2_o_5.png",1080,"wi",1999,"ba","orangene","C:/Users/steff/Documents/Universität/Master Psychologie/SS 2022/Masterarbeit/Experiment/subject-7.csv",0,1,0,"a",20,-30,"l","l",647.008799947798,647.008799947798,7,NA,313636.419599992,NA,233958.187200013,288260.003700037,314284.176600049,313328.395800083,67788.914600038,NA,NA,3999.34530002065,NA,283264.749100083,313335.66360001,312754.815099994,NA,312828.211000073,NA,288387.019200018,4744.15070004761,93438.2806000067,107249.208700028,127268.731000018,146611.809000024,174544.586000033,288387.162900064,314284.271900076,NA,308700.507400092,282824.705000035,310460.760900052,NA,312454.052400077,280776.117700036,NA,NA,NA,NA,NA,NA,NA,233958.005600027,288379.984800005,NA,312828.139099991,NA,NA,312749.385400093,3999.65300003532,313636.504300055,3999.67789999209,313328.316200059,233957.212400041,NA,NA,4727.71290002856,NA,NA,182687.95130006,2,22233.4868999897,4,1,50
40,96,4586.74958001357,"l","speed","ba1999wi","0","o","a","0","0","0",19,2,700,"Tue Mar 28 13:13:43 2023",2,"eher schwer","speed","Experiment.osexp","Bild_s2_o_8.png",1080,"wi",1999,"ba","orangene","C:/Users/steff/Documents/Universität/Master Psychologie/SS 2022/Masterarbeit/Experiment/subject-7.csv",0,0,1,"a",10,-40,"l","l",700.261000078171,700.261000078171,7,NA,315439.164799987,NA,233958.187200013,288260.003700037,316140.232500038,315130.379000097,67788.914600038,NA,NA,3999.34530002065,NA,283264.749100083,315137.660700013,314595.078599988,NA,312828.211000073,NA,288387.019200018,4744.15070004761,93438.2806000067,107249.208700028,127268.731000018,146611.809000024,174544.586000033,288387.162900064,316140.329500078,NA,308700.507400092,282824.705000035,310460.760900052,NA,314294.597200002,280776.117700036,NA,NA,NA,NA,NA,NA,NA,233958.005600027,288379.984800005,NA,312828.139099991,NA,NA,314589.708300075,3999.65300003532,315439.288099995,3999.67789999209,315130.30040008,233957.212400041,NA,NA,4727.71290002856,NA,NA,182687.95130006,2,22933.7479000678,5,1,50
50,96,3919.90988332933,"l","speed","ba1999wi","1","o","a","0","1","0",20,2,700,"Tue Mar 28 13:13:43 2023",1,"eher leicht","speed","Experiment.osexp","Bild_s3_o_25.png",1080,"wi",1999,"ba","orangene","C:/Users/steff/Documents/Universität/Master Psychologie/SS 2022/Masterarbeit/Experiment/subject-7.csv",0,0,0,"a",15,-35,"a","a",585.711399908178,585.711399908178,7,NA,317345.674799988,NA,233958.187200013,288260.003700037,317932.143400074,317037.80280007,67788.914600038,NA,NA,3999.34530002065,NA,283264.749100083,317045.033300063,316455.750400084,NA,316526.40480001,NA,288387.019200018,4744.15070004761,93438.2806000067,107249.208700028,127268.731000018,146611.809000024,174544.586000033,288387.162900064,317932.219100068,NA,308700.507400092,282824.705000035,310460.760900052,316155.185200041,314294.597200002,280776.117700036,NA,NA,NA,NA,NA,NA,NA,233958.005600027,288379.984800005,NA,316526.32100007,NA,NA,316450.349400053,3999.65300003532,317345.855300082,3999.67789999209,317037.724000053,233957.212400041,NA,NA,4727.71290002856,NA,NA,182687.95130006,3,23519.459299976,6,1,50
42.8571428571429,96,3442.37459998112,"l","speed","ba1999wi","0","o","a","0","0","0",21,2,700,"Tue Mar 28 13:13:43 2023",1,"eher leicht","speed","Experiment.osexp","Bild_s3_o_24.png",1080,"wi",1999,"ba","orangene","C:/Users/steff/Documents/Universität/Master Psychologie/SS 2022/Masterarbeit/Experiment/subject-7.csv",0,1,0,"a",5,-45,"l","l",577.162899891846,577.162899891846,7,NA,319098.272300093,NA,233958.187200013,288260.003700037,319676.315100049,318790.195400012,67788.914600038,NA,NA,3999.34530002065,NA,283264.749100083,318797.032500035,318245.078900014,NA,316526.40480001,NA,288387.019200018,4744.15070004761,93438.2806000067,107249.208700028,127268.731000018,146611.809000024,174544.586000033,288387.162900064,319676.41090008,NA,308700.507400092,282824.705000035,310460.760900052,316155.185200041,314294.597200002,280776.117700036,317944.618500071,NA,NA,NA,NA,NA,NA,233958.005600027,288379.984800005,NA,316526.32100007,NA,NA,318239.743300015,3999.65300003532,319098.380000098,3999.67789999209,318790.113100084,233957.212400041,NA,NA,4727.71290002856,NA,NA,182687.95130006,3,24096.6221998679,7,1,50
37.5,96,3070.09511247452,"l","speed","ba1999wi","0","b","l","0","0","0",22,2,700,"Tue Mar 28 13:13:43 2023",0,"sehr leicht","speed","Experiment.osexp","Bild_s4_b_21.png",1080,"wi",1999,"ba","orangene","C:/Users/steff/Documents/Universität/Master Psychologie/SS 2022/Masterarbeit/Experiment/subject-7.csv",0,1,0,"a",-5,-55,"a","a",464.138699928299,464.138699928299,7,NA,320891.309900093,NA,233958.187200013,288260.003700037,321356.139500043,320583.233500016,67788.914600038,NA,NA,3999.34530002065,NA,283264.749100083,320590.151900076,319988.490500022,NA,320060.932900058,NA,288387.019200018,4744.15070004761,93438.2806000067,107249.208700028,127268.731000018,146611.809000024,174544.586000033,288387.162900064,321356.236400083,NA,308700.507400092,282824.705000035,310460.760900052,316155.185200041,319687.671500025,280776.117700036,317944.618500071,NA,NA,NA,NA,NA,NA,233958.005600027,288379.984800005,NA,320060.861600097,NA,NA,319983.110700035,3999.65300003532,320891.401400091,3999.67789999209,320583.154799999,233957.212400041,NA,NA,4727.71290002856,NA,NA,182687.95130006,3,24560.7608997962,8,1,50
44.4444444444444,96,2792.71047775789,"l","speed","ba1999wi","1","b","l","0","1","0",23,2,700,"Tue Mar 28 13:13:43 2023",0,"sehr leicht","speed","Experiment.osexp","Bild_s4_b_19.png",1080,"wi",1999,"ba","orangene","C:/Users/steff/Documents/Universität/Master Psychologie/SS 2022/Masterarbeit/Experiment/subject-7.csv",0,0,0,"a",0,-50,"l","l",573.633400024846,573.633400024846,7,NA,322525.735600037,NA,233958.187200013,288260.003700037,323100.080600008,322217.17050008,67788.914600038,NA,NA,3999.34530002065,NA,283264.749100083,322224.552100059,321679.329100065,NA,320060.932900058,NA,288387.019200018,4744.15070004761,93438.2806000067,107249.208700028,127268.731000018,146611.809000024,174544.586000033,288387.162900064,323100.155399996,NA,308700.507400092,282824.705000035,310460.760900052,316155.185200041,321378.886200022,280776.117700036,317944.618500071,NA,NA,NA,NA,NA,NA,233958.005600027,288379.984800005,NA,320060.861600097,NA,NA,321673.94550005,3999.65300003532,322525.906000054,3999.67789999209,322217.091900064,233957.212400041,NA,NA,4727.71290002856,NA,NA,182687.95130006,4,25134.394299821,9,1,50
50,96,2576.63647998124,"l","speed","ba1999wi","1","o","a","0","1","0",24,2,700,"Tue Mar 28 13:13:43 2023",0,"sehr leicht","speed","Experiment.osexp","Bild_s4_o_8.png",1080,"wi",1999,"ba","orangene","C:/Users/steff/Documents/Universität/Master Psychologie/SS 2022/Masterarbeit/Experiment/subject-7.csv",0,0,0,"a",5,-45,"a","a",631.970499991439,631.970499991439,7,NA,324307.435700088,NA,233958.187200013,288260.003700037,324940.182800055,323999.431100092,67788.914600038,NA,NA,3999.34530002065,NA,283264.749100083,324006.302600028,323415.945000015,NA,323486.890400061,NA,288387.019200018,4744.15070004761,93438.2806000067,107249.208700028,127268.731000018,146611.809000024,174544.586000033,288387.162900064,324940.261000069,NA,308700.507400092,282824.705000035,310460.760900052,316155.185200041,321378.886200022,280776.117700036,323115.499400068,NA,NA,NA,NA,NA,NA,233958.005600027,288379.984800005,NA,323486.81989999,NA,NA,323410.485900007,3999.65300003532,324307.52110004,3999.67789999209,323999.350800063,233957.212400041,NA,NA,4727.71290002856,NA,NA,182687.95130006,5,25766.3647998124,10,1,50
54.5454545454545,96,2383.78519089681,"l","speed","ba1999wi","1","b","l","0","1","0",25,2,700,"Tue Mar 28 13:13:43 2023",0,"sehr leicht","speed","Experiment.osexp","Bild_s4_b_10.png",1080,"wi",1999,"ba","orangene","C:/Users/steff/Documents/Universität/Master Psychologie/SS 2022/Masterarbeit/Experiment/subject-7.csv",0,0,0,"a",10,-40,"l","l",455.272300052457,455.272300052457,7,NA,326116.180400015,NA,233958.187200013,288260.003700037,326572.246500058,325807.455300004,67788.914600038,NA,NA,3999.34530002065,NA,283264.749100083,325814.74260008,325264.133200049,NA,323486.890400061,NA,288387.019200018,4744.15070004761,93438.2806000067,107249.208700028,127268.731000018,146611.809000024,174544.586000033,288387.162900064,326572.319100029,NA,308700.507400092,282824.705000035,310460.760900052,316155.185200041,321378.886200022,280776.117700036,324963.334600092,NA,NA,NA,NA,NA,NA,233958.005600027,288379.984800005,NA,323486.81989999,NA,NA,325258.761200006,3999.65300003532,326116.258600028,3999.67789999209,325807.376300101,233957.212400041,NA,NA,4727.71290002856,NA,NA,182687.95130006,6,26221.6370998649,11,1,50
58.3333333333333,96,2240.6048583216,"l","speed","ba1999wi","1","o","a","0","1","0",26,2,700,"Tue Mar 28 13:13:43 2023",1,"eher leicht","speed","Experiment.osexp","Bild_s3_o_13.png",1080,"wi",1999,"ba","orangene","C:/Users/steff/Documents/Universität/Master Psychologie/SS 2022/Masterarbeit/Experiment/subject-7.csv",0,0,0,"a",15,-35,"a","a",665.621199994348,665.621199994348,7,NA,327761.795800063,NA,233958.187200013,288260.003700037,328428.25560004,327453.237900045,67788.914600038,NA,NA,3999.34530002065,NA,283264.749100083,327460.167200072,326883.612100035,NA,326956.889500027,NA,288387.019200018,4744.15070004761,93438.2806000067,107249.208700028,127268.731000018,146611.809000024,174544.586000033,288387.162900064,328428.329000017,NA,308700.507400092,282824.705000035,310460.760900052,316155.185200041,321378.886200022,280776.117700036,326582.809700049,NA,NA,NA,NA,NA,NA,233958.005600027,288379.984800005,NA,326956.813600031,NA,NA,326878.241700004,3999.65300003532,327761.884900043,3999.67789999209,327453.160000034,233957.212400041,NA,NA,4727.71290002856,NA,NA,182687.95130006,7,26887.2582998592,12,1,50
61.5384615384615,96,2126.17644613895,"l","speed","ba1999wi","1","o","a","0","0","1",27,2,700,"Tue Mar 28 13:13:43 2023",1,"eher leicht","speed","Experiment.osexp","Bild_s3_o_9.png",1080,"wi",1999,"ba","orangene","C:/Users/steff/Documents/Universität/Master Psychologie/SS 2022/Masterarbeit/Experiment/subject-7.csv",0,0,0,"a",5,-45,"a","a",753.035499947146,753.035499947146,7,NA,329594.401700073,NA,233958.187200013,288260.003700037,330348.149300087,329286.402199999,67788.914600038,NA,NA,3999.34530002065,NA,283264.749100083,329293.316000025,328746.609500027,NA,326956.889500027,NA,288387.019200018,4744.15070004761,93438.2806000067,107249.208700028,127268.731000018,146611.809000024,174544.586000033,288387.162900064,330348.242900101,NA,308700.507400092,282824.705000035,310460.760900052,316155.185200041,321378.886200022,280776.117700036,328445.899900049,NA,NA,NA,NA,NA,NA,233958.005600027,288379.984800005,NA,326956.813600031,NA,NA,328741.309000063,3999.65300003532,329594.492500066,3999.67789999209,329286.323300097,233957.212400041,NA,NA,4727.71290002856,NA,NA,182687.95130006,8,27640.2937998064,13,1,50
57.1428571428571,96,2018.32399284467,"l","speed","ba1999wi","0","o","a","0","0","0",28,2,700,"Tue Mar 28 13:13:43 2023",2,"eher schwer","speed","Experiment.osexp","Bild_s2_o_13.png",1080,"wi",1999,"ba","orangene","C:/Users/steff/Documents/Universität/Master Psychologie/SS 2022/Masterarbeit/Experiment/subject-7.csv",0,1,0,"a",-5,-55,"l","l",616.242100019008,616.242100019008,7,NA,331555.113800103,NA,233958.187200013,288260.003700037,332172.156100045,331246.826400049,67788.914600038,NA,NA,3999.34530002065,NA,283264.749100083,331254.181800061,330676.923400024,NA,330755.1828,NA,288387.019200018,4744.15070004761,93438.2806000067,107249.208700028,127268.731000018,146611.809000024,174544.586000033,288387.162900064,332172.249500058,NA,308700.507400092,282824.705000035,330375.805100077,316155.185200041,321378.886200022,280776.117700036,328445.899900049,NA,NA,NA,NA,NA,NA,233958.005600027,288379.984800005,NA,330755.108500016,NA,NA,330671.595300082,3999.65300003532,331555.276000057,3999.67789999209,331246.744900011,233957.212400041,NA,NA,4727.71290002856,NA,NA,182687.95130006,8,28256.5358998254,14,1,50
60,96,1944.02484664849,"l","speed","ba1999wi","1","o","a","0","0","1",29,2,700,"Tue Mar 28 13:13:43 2023",2,"eher schwer","speed","Experiment.osexp","Bild_s2_o_16.png",1080,"wi",1999,"ba","orangene","C:/Users/steff/Documents/Universität/Master Psychologie/SS 2022/Masterarbeit/Experiment/subject-7.csv",0,0,0,"a",-15,-65,"a","a",903.83679990191,903.83679990191,7,NA,333331.500600092,NA,233958.187200013,288260.003700037,334236.162099987,333023.732400034,67788.914600038,NA,NA,3999.34530002065,NA,283264.749100083,333030.88960005,332489.643800072,NA,330755.1828,NA,288387.019200018,4744.15070004761,93438.2806000067,107249.208700028,127268.731000018,146611.809000024,174544.586000033,288387.162900064,334236.258200021,NA,308700.507400092,282824.705000035,330375.805100077,316155.185200041,332189.232000033,280776.117700036,328445.899900049,NA,NA,NA,NA,NA,NA,233958.005600027,288379.984800005,NA,330755.108500016,NA,NA,332484.480899991,3999.65300003532,333331.683600089,3999.67789999209,333023.653800017,233957.212400041,NA,NA,4727.71290002856,NA,NA,182687.95130006,9,29160.3726997273,15,1,50
56.25,96,1858.58365623426,"l","speed","ba1999wi","0","o","a","0","0","0",30,2,700,"Tue Mar 28 13:13:43 2023",3,"sehr schwer","speed","Experiment.osexp","Bild_s1_o_22.png",1080,"wi",1999,"ba","orangene","C:/Users/steff/Documents/Universität/Master Psychologie/SS 2022/Masterarbeit/Experiment/subject-7.csv",0,1,0,"a",-25,-75,"l","l",576.965800020844,576.965800020844,7,NA,335434.381600004,NA,233958.187200013,288260.003700037,336012.12790003,335126.412100042,67788.914600038,NA,NA,3999.34530002065,NA,283264.749100083,335133.751000045,334557.972800103,NA,334631.233600085,NA,288387.019200018,4744.15070004761,93438.2806000067,107249.208700028,127268.731000018,146611.809000024,174544.586000033,288387.162900064,336012.222900055,NA,308700.507400092,282824.705000035,334253.788000089,316155.185200041,332189.232000033,280776.117700036,328445.899900049,NA,NA,NA,NA,NA,NA,233958.005600027,288379.984800005,NA,334631.158700096,NA,NA,334549.734700006,3999.65300003532,335434.559300076,3999.67789999209,335126.332900021,233957.212400041,NA,NA,4727.71290002856,NA,NA,182687.95130006,9,29737.3384997481,16,1,50
58.8235294117647,96,1790.72254116181,"l","speed","ba1999wi","1","o","a","0","0","1",31,2,700,"Tue Mar 28 13:13:43 2023",3,"sehr schwer","speed","Experiment.osexp","Bild_s1_o_15.png",1080,"wi",1999,"ba","orangene","C:/Users/steff/Documents/Universität/Master Psychologie/SS 2022/Masterarbeit/Experiment/subject-7.csv",0,0,0,"a",-35,-85,"a","a",704.94470000267,704.94470000267,7,NA,337194.496300071,NA,233958.187200013,288260.003700037,337900.257000001,336886.572699994,67788.914600038,NA,NA,3999.34530002065,NA,283264.749100083,336893.503100029,336338.82090007,NA,334631.233600085,NA,288387.019200018,4744.15070004761,93438.2806000067,107249.208700028,127268.731000018,146611.809000024,174544.586000033,288387.162900064,337900.363199995,NA,308700.507400092,282824.705000035,334253.788000089,316155.185200041,336038.0076,280776.117700036,328445.899900049,NA,NA,NA,NA,NA,NA,233958.005600027,288379.984800005,NA,334631.158700096,NA,NA,336333.350500092,3999.65300003532,337194.587100064,3999.67789999209,336886.495100101,233957.212400041,NA,NA,4727.71290002856,NA,NA,182687.95130006,10,30442.2831997508,17,1,50
100,96,2326.67674997356,"l","accuracy","ba1999wi","1","b","l","1","0","0",32,3,700,"Tue Mar 28 13:13:43 2023",3,"sehr schwer","speed","Experiment.osexp","Bild_s1_b_3.png",1080,"wi",1999,"ba","orangene","C:/Users/steff/Documents/Universität/Master Psychologie/SS 2022/Masterarbeit/Experiment/subject-7.csv",0,0,0,"a",-30,5,"l","l",1164.29089999292,1164.29089999292,7,NA,347791.138200089,NA,343425.993300043,343356.473500025,348956.369300024,347483.193200082,67788.914600038,NA,NA,3999.34530002065,NA,338361.301800003,347490.101200063,338215.732800076,NA,347005.26980008,NA,343514.321200084,4744.15070004761,93438.2806000067,107249.208700028,127268.731000018,146611.809000024,174544.586000033,343514.441200066,348956.431600032,NA,347004.355000099,282824.705000035,337914.893200039,316155.185200041,336038.0076,280776.117700036,328445.899900049,NA,NA,NA,NA,NA,NA,343425.923100091,343507.477800013,NA,347005.216200021,NA,NA,338210.327500012,3999.65300003532,347791.228000075,3999.67789999209,347482.99420008,233957.212400041,NA,343390.052200062,4727.71290002856,NA,NA,182687.95130006,2,4653.35349994712,2,1,-35
100,96,1768.91969998057,"l","accuracy","ba1999wi","1","o","a","1","0","0",33,3,700,"Tue Mar 28 13:13:43 2023",3,"sehr schwer","speed","Experiment.osexp","Bild_s1_o_5.png",1080,"wi",1999,"ba","orangene","C:/Users/steff/Documents/Universität/Master Psychologie/SS 2022/Masterarbeit/Experiment/subject-7.csv",0,0,0,"a",-25,10,"a","a",653.405599994585,653.405599994585,7,NA,350110.016299994,NA,343425.993300043,343356.473500025,350764.067900018,349801.726200036,67788.914600038,NA,NA,3999.34530002065,NA,338361.301800003,349808.697000029,349276.624800055,NA,347005.26980008,NA,343514.321200084,4744.15070004761,93438.2806000067,107249.208700028,127268.731000018,146611.809000024,174544.586000033,343514.441200066,350764.130800031,NA,347004.355000099,282824.705000035,337914.893200039,316155.185200041,336038.0076,348975.893100025,328445.899900049,NA,NA,NA,NA,NA,NA,343425.923100091,343507.477800013,NA,347005.216200021,NA,NA,349271.291600075,3999.65300003532,350110.099000041,3999.67789999209,349801.647100016,233957.212400041,NA,343390.052200062,4727.71290002856,NA,NA,182687.95130006,3,5306.7590999417,3,1,-35
75,96,1536.47554997588,"l","accuracy","ba1999wi","0","o","a","0","0","0",34,3,700,"Tue Mar 28 13:13:43 2023",2,"eher schwer","speed","Experiment.osexp","Bild_s2_o_5.png",1080,"wi",1999,"ba","orangene","C:/Users/steff/Documents/Universität/Master Psychologie/SS 2022/Masterarbeit/Experiment/subject-7.csv",1,0,0,"a",-35,0,"l","l",839.143099961802,839.143099961802,7,NA,351956.269000075,NA,343425.993300043,343356.473500025,352796.045300085,351648.188600084,67788.914600038,NA,NA,3999.34530002065,NA,338361.301800003,351655.451000086,351092.866200022,NA,351164.026900078,NA,343514.321200084,4744.15070004761,93438.2806000067,107249.208700028,127268.731000018,146611.809000024,174544.586000033,343514.441200066,352796.111700009,NA,347004.355000099,282824.705000035,337914.893200039,316155.185200041,336038.0076,350792.070400086,328445.899900049,NA,NA,NA,NA,NA,NA,343425.923100091,343507.477800013,NA,351163.950800081,NA,NA,351087.4184001,3999.65300003532,351956.362900091,3999.67789999209,351648.110900074,233957.212400041,NA,343390.052200062,4727.71290002856,NA,NA,182687.95130006,3,6145.9021999035,4,1,-35
80,96,1498.71133998968,"l","accuracy","ba1999wi","1","b","l","1","0","0",35,3,700,"Tue Mar 28 13:13:43 2023",2,"eher schwer","speed","Experiment.osexp","Bild_s2_b_18.png",1080,"wi",1999,"ba","orangene","C:/Users/steff/Documents/Universität/Master Psychologie/SS 2022/Masterarbeit/Experiment/subject-7.csv",0,0,0,"a",-30,5,"l","l",1347.65450004488,1347.65450004488,7,NA,353943.744500051,NA,343425.993300043,343356.473500025,355292.310400051,353635.89470007,67788.914600038,NA,NA,3999.34530002065,NA,338361.301800003,353643.073900021,353110.13070005,NA,351164.026900078,NA,343514.321200084,4744.15070004761,93438.2806000067,107249.208700028,127268.731000018,146611.809000024,174544.586000033,343514.441200066,355292.372000054,NA,347004.355000099,352809.789600084,337914.893200039,316155.185200041,336038.0076,350792.070400086,328445.899900049,NA,NA,NA,NA,NA,NA,343425.923100091,343507.477800013,NA,351163.950800081,NA,NA,353104.818399996,3999.65300003532,353943.863700028,3999.67789999209,353635.817200062,233957.212400041,NA,343390.052200062,4727.71290002856,NA,NA,182687.95130006,4,7493.55669994839,5,1,-35
83.3333333333333,96,1360.77048332663,"l","accuracy","ba1999wi","1","o","a","1","0","0",36,3,700,"Tue Mar 28 13:13:43 2023",1,"eher leicht","speed","Experiment.osexp","Bild_s3_o_3.png",1080,"wi",1999,"ba","orangene","C:/Users/steff/Documents/Universität/Master Psychologie/SS 2022/Masterarbeit/Experiment/subject-7.csv",0,0,0,"a",-25,10,"a","a",671.06620001141,671.06620001141,7,NA,356476.229500026,NA,343425.993300043,343356.473500025,357148.246800061,356168.247800088,67788.914600038,NA,NA,3999.34530002065,NA,338361.301800003,356175.423400011,355609.523400082,NA,355680.866800016,NA,343514.321200084,4744.15070004761,93438.2806000067,107249.208700028,127268.731000018,146611.809000024,174544.586000033,343514.441200066,357148.308700067,NA,347004.355000099,352809.789600084,337914.893200039,316155.185200041,336038.0076,355308.739100001,328445.899900049,NA,NA,NA,NA,NA,NA,343425.923100091,343507.477800013,NA,355680.795500055,NA,NA,355604.113200097,3999.65300003532,356476.455700002,3999.67789999209,356168.155700085,233957.212400041,NA,343390.052200062,4727.71290002856,NA,NA,182687.95130006,5,8164.6228999598,6,1,-35
85.7142857142857,96,1323.34870000237,"l","accuracy","ba1999wi","1","o","a","1","0","0",37,3,700,"Tue Mar 28 13:13:43 2023",1,"eher leicht","speed","Experiment.osexp","Bild_s3_o_16.png",1080,"wi",1999,"ba","orangene","C:/Users/steff/Documents/Universität/Master Psychologie/SS 2022/Masterarbeit/Experiment/subject-7.csv",0,0,0,"a",-20,15,"a","a",1098.81800005678,1098.81800005678,7,NA,358288.570700097,NA,343425.993300043,343356.473500025,359388.125200057,357980.866200058,67788.914600038,NA,NA,3999.34530002065,NA,338361.301800003,357987.566500087,357472.372199991,NA,355680.866800016,NA,343514.321200084,4744.15070004761,93438.2806000067,107249.208700028,127268.731000018,146611.809000024,174544.586000033,343514.441200066,359388.193499995,NA,347004.355000099,352809.789600084,337914.893200039,316155.185200041,336038.0076,357171.603600029,328445.899900049,NA,NA,NA,NA,NA,NA,343425.923100091,343507.477800013,NA,355680.795500055,NA,NA,357467.016900075,3999.65300003532,358288.685800042,3999.67789999209,357980.783400009,233957.212400041,NA,343390.052200062,4727.71290002856,NA,NA,182687.95130006,6,9263.44090001658,7,1,-35
87.5,96,1224.74153750227,"l","accuracy","ba1999wi","1","b","l","1","0","0",38,3,700,"Tue Mar 28 13:13:43 2023",0,"sehr leicht","speed","Experiment.osexp","Bild_s4_b_11.png",1080,"wi",1999,"ba","orangene","C:/Users/steff/Documents/Universität/Master Psychologie/SS 2022/Masterarbeit/Experiment/subject-7.csv",0,0,0,"a",-15,20,"l","l",534.491400001571,534.491400001571,7,NA,360580.921599991,NA,343425.993300043,343356.473500025,361116.131799994,360273.140100064,67788.914600038,NA,NA,3999.34530002065,NA,338361.301800003,360280.348300003,359706.53090009,NA,359779.659699998,NA,343514.321200084,4744.15070004761,93438.2806000067,107249.208700028,127268.731000018,146611.809000024,174544.586000033,343514.441200066,361116.200900055,NA,347004.355000099,352809.789600084,337914.893200039,316155.185200041,336038.0076,359405.905600055,328445.899900049,NA,NA,NA,NA,NA,NA,343425.923100091,343507.477800013,NA,359779.588200036,NA,NA,359701.187100029,3999.65300003532,360581.004300038,3999.67789999209,360273.060400039,233957.212400041,NA,343390.052200062,4727.71290002856,NA,NA,182687.95130006,7,9797.93230001815,8,1,-35
88.8888888888889,96,1163.99166667058,"l","accuracy","ba1999wi","1","o","a","1","0","0",39,3,700,"Tue Mar 28 13:13:43 2023",0,"sehr leicht","speed","Experiment.osexp","Bild_s4_o_15.png",1080,"wi",1999,"ba","orangene","C:/Users/steff/Documents/Universität/Master Psychologie/SS 2022/Masterarbeit/Experiment/subject-7.csv",0,0,0,"a",-10,25,"a","a",677.992700017057,677.992700017057,7,NA,362277.413700009,NA,343425.993300043,343356.473500025,362956.145600067,361969.539300073,67788.914600038,NA,NA,3999.34530002065,NA,338361.301800003,361976.450000075,361444.729300099,NA,359779.659699998,NA,343514.321200084,4744.15070004761,93438.2806000067,107249.208700028,127268.731000018,146611.809000024,174544.586000033,343514.441200066,362956.215600017,NA,347004.355000099,352809.789600084,337914.893200039,316155.185200041,336038.0076,361144.137800089,328445.899900049,NA,NA,NA,NA,NA,NA,343425.923100091,343507.477800013,NA,359779.588200036,NA,NA,361439.295200049,3999.65300003532,362277.503199992,3999.67789999209,361969.457900035,233957.212400041,NA,343390.052200062,4727.71290002856,NA,NA,182687.95130006,8,10475.9250000352,9,1,-35
90,96,1123.04653000319,"l","accuracy","ba1999wi","1","o","a","1","0","0",40,3,700,"Tue Mar 28 13:13:43 2023",0,"sehr leicht","speed","Experiment.osexp","Bild_s4_o_11.png",1080,"wi",1999,"ba","orangene","C:/Users/steff/Documents/Universität/Master Psychologie/SS 2022/Masterarbeit/Experiment/subject-7.csv",0,0,0,"a",-5,30,"a","a",754.540299996734,754.540299996734,7,NA,364168.876100099,NA,343425.993300043,343356.473500025,364924.255600083,363860.833100043,67788.914600038,NA,NA,3999.34530002065,NA,338361.301800003,363867.772100028,363288.78599999,NA,363359.963200055,NA,343514.321200084,4744.15070004761,93438.2806000067,107249.208700028,127268.731000018,146611.809000024,174544.586000033,343514.441200066,364924.325900036,NA,347004.355000099,352809.789600084,337914.893200039,316155.185200041,336038.0076,362987.928100047,328445.899900049,NA,NA,NA,NA,NA,NA,343425.923100091,343507.477800013,NA,363359.889900079,NA,NA,363283.37379999,3999.65300003532,364168.960800045,3999.67789999209,363860.752100009,233957.212400041,NA,343390.052200062,4727.71290002856,NA,NA,182687.95130006,9,11230.4653000319,10,1,-35
90.9090909090909,96,1065.76403636824,"l","accuracy","ba1999wi","1","b","l","1","0","0",41,3,700,"Tue Mar 28 13:13:43 2023",0,"sehr leicht","speed","Experiment.osexp","Bild_s4_b_23.png",1080,"wi",1999,"ba","orangene","C:/Users/steff/Documents/Universität/Master Psychologie/SS 2022/Masterarbeit/Experiment/subject-7.csv",0,0,0,"a",0,35,"l","l",492.939100018703,492.939100018703,7,NA,366094.468399999,NA,343425.993300043,343356.473500025,366588.133600075,365786.675000098,67788.914600038,NA,NA,3999.34530002065,NA,338361.301800003,365793.912200024,365256.553800078,NA,363359.963200055,NA,343514.321200084,4744.15070004761,93438.2806000067,107249.208700028,127268.731000018,146611.809000024,174544.586000033,343514.441200066,366588.203000021,NA,347004.355000099,352809.789600084,337914.893200039,316155.185200041,336038.0076,364955.570699996,328445.899900049,NA,NA,NA,NA,NA,NA,343425.923100091,343507.477800013,NA,363359.889900079,NA,NA,365251.197900041,3999.65300003532,366094.551500049,3999.67789999209,365786.59630008,233957.212400041,NA,343390.052200062,4727.71290002856,NA,NA,182687.95130006,10,11723.4044000506,11,1,-35
91.6666666666667,96,1032.79698333548,"l","accuracy","ba1999wi","1","b","l","1","0","0",42,3,700,"Tue Mar 28 13:13:43 2023",1,"eher leicht","speed","Experiment.osexp","Bild_s3_b_21.png",1080,"wi",1999,"ba","orangene","C:/Users/steff/Documents/Universität/Master Psychologie/SS 2022/Masterarbeit/Experiment/subject-7.csv",0,0,0,"a",5,40,"l","l",670.159399975091,670.159399975091,7,NA,367789.23850006,NA,343425.993300043,343356.473500025,368460.128200008,367481.210900005,67788.914600038,NA,NA,3999.34530002065,NA,338361.301800003,367488.049800042,366911.841200083,NA,366985.180200078,NA,343514.321200084,4744.15070004761,93438.2806000067,107249.208700028,127268.731000018,146611.809000024,174544.586000033,343514.441200066,368460.197000066,NA,347004.355000099,352809.789600084,337914.893200039,316155.185200041,336038.0076,366611.366300029,328445.899900049,NA,NA,NA,NA,NA,NA,343425.923100091,343507.477800013,NA,366985.10749999,NA,NA,366906.472600065,3999.65300003532,367789.330100059,3999.67789999209,367481.131400098,233957.212400041,NA,343390.052200062,4727.71290002856,NA,NA,182687.95130006,11,12393.5638000257,12,1,-35
84.6153846153846,96,1011.89736923418,"l","accuracy","ba1999wi","0","b","l","0","0","0",43,3,700,"Tue Mar 28 13:13:43 2023",1,"eher leicht","speed","Experiment.osexp","Bild_s3_b_16.png",1080,"wi",1999,"ba","orangene","C:/Users/steff/Documents/Universität/Master Psychologie/SS 2022/Masterarbeit/Experiment/subject-7.csv",1,0,0,"a",-5,30,"a","a",761.102000018582,761.102000018582,7,NA,369634.2038,NA,343425.993300043,343356.473500025,370396.126700099,369326.106699998,67788.914600038,NA,NA,3999.34530002065,NA,338361.301800003,369333.319300087,368789.040600066,NA,366985.180200078,NA,343514.321200084,4744.15070004761,93438.2806000067,107249.208700028,127268.731000018,146611.809000024,174544.586000033,343514.441200066,370396.197100054,NA,347004.355000099,352809.789600084,337914.893200039,316155.185200041,336038.0076,368488.398900023,328445.899900049,NA,NA,NA,NA,NA,NA,343425.923100091,343507.477800013,NA,366985.10749999,NA,NA,368783.741299994,3999.65300003532,369634.402199998,3999.67789999209,369326.025000075,233957.212400041,NA,343390.052200062,4727.71290002856,NA,NA,182687.95130006,11,13154.6658000443,13,1,-35
85.7142857142857,96,982.395778568129,"l","accuracy","ba1999wi","1","b","l","1","0","0",44,3,700,"Tue Mar 28 13:13:43 2023",2,"eher schwer","speed","Experiment.osexp","Bild_s2_b_6.png",1080,"wi",1999,"ba","orangene","C:/Users/steff/Documents/Universität/Master Psychologie/SS 2022/Masterarbeit/Experiment/subject-7.csv",0,0,0,"a",0,35,"l","l",598.875099909492,598.875099909492,7,NA,371588.526400039,NA,343425.993300043,343356.473500025,372188.1268,371280.991900014,67788.914600038,NA,NA,3999.34530002065,NA,338361.301800003,371287.956500077,370714.229100035,NA,370791.840000078,NA,343514.321200084,4744.15070004761,93438.2806000067,107249.208700028,127268.731000018,146611.809000024,174544.586000033,343514.441200066,372188.194800052,NA,347004.355000099,370413.653800031,337914.893200039,316155.185200041,336038.0076,368488.398900023,328445.899900049,NA,NA,NA,NA,NA,NA,343425.923100091,343507.477800013,NA,370791.7664001,NA,NA,370708.901600097,3999.65300003532,371588.610500097,3999.67789999209,371280.912599992,233957.212400041,NA,343390.052200062,4727.71290002856,NA,NA,182687.95130006,12,13753.5408999538,14,1,-35
86.6666666666667,96,953.039740002714,"l","accuracy","ba1999wi","1","b","l","1","0","0",45,3,700,"Tue Mar 28 13:13:43 2023",2,"eher schwer","speed","Experiment.osexp","Bild_s2_b_21.png",1080,"wi",1999,"ba","orangene","C:/Users/steff/Documents/Universität/Master Psychologie/SS 2022/Masterarbeit/Experiment/subject-7.csv",0,0,0,"a",5,40,"l","l",542.055200086907,542.055200086907,7,NA,373341.338800033,NA,343425.993300043,343356.473500025,373884.132000036,373033.61500008,67788.914600038,NA,NA,3999.34530002065,NA,338361.301800003,373040.838400018,372508.4219001,NA,370791.840000078,NA,343514.321200084,4744.15070004761,93438.2806000067,107249.208700028,127268.731000018,146611.809000024,174544.586000033,343514.441200066,373884.201100096,NA,347004.355000099,370413.653800031,337914.893200039,316155.185200041,336038.0076,372207.721500075,328445.899900049,NA,NA,NA,NA,NA,NA,343425.923100091,343507.477800013,NA,370791.7664001,NA,NA,372502.958200057,3999.65300003532,373341.440799995,3999.67789999209,373033.532600035,233957.212400041,NA,343390.052200062,4727.71290002856,NA,NA,182687.95130006,13,14295.5961000407,15,1,-35
87.5,96,934.863474998565,"l","accuracy","ba1999wi","1","o","a","1","0","0",46,3,700,"Tue Mar 28 13:13:43 2023",3,"sehr schwer","speed","Experiment.osexp","Bild_s1_o_13.png",1080,"wi",1999,"ba","orangene","C:/Users/steff/Documents/Universität/Master Psychologie/SS 2022/Masterarbeit/Experiment/subject-7.csv",0,0,0,"a",10,45,"a","a",662.219499936327,662.219499936327,7,NA,375093.178700074,NA,343425.993300043,343356.473500025,375756.142800092,374785.318400012,67788.914600038,NA,NA,3999.34530002065,NA,338361.301800003,374792.566800024,374211.579299998,NA,374291.186899994,NA,343514.321200084,4744.15070004761,93438.2806000067,107249.208700028,127268.731000018,146611.809000024,174544.586000033,343514.441200066,375756.212900043,NA,347004.355000099,370413.653800031,337914.893200039,316155.185200041,336038.0076,373911.097900011,328445.899900049,NA,NA,NA,NA,NA,NA,343425.923100091,343507.477800013,NA,374291.109599988,NA,NA,374206.220900058,3999.65300003532,375093.2586001,3999.67789999209,374785.2403,233957.212400041,NA,343390.052200062,4727.71290002856,NA,NA,182687.95130006,14,14957.815599977,16,1,-35
82.3529411764706,96,921.469011761741,"l","accuracy","ba1999wi","0","o","a","0","0","0",47,3,700,"Tue Mar 28 13:13:43 2023",3,"sehr schwer","speed","Experiment.osexp","Bild_s1_o_14.png",1080,"wi",1999,"ba","orangene","C:/Users/steff/Documents/Universität/Master Psychologie/SS 2022/Masterarbeit/Experiment/subject-7.csv",1,0,0,"a",0,35,"l","l",707.157599972561,707.157599972561,7,NA,376920.138100046,NA,343425.993300043,343356.473500025,377628.185700043,376612.367500085,67788.914600038,NA,NA,3999.34530002065,NA,338361.301800003,376619.566700072,376076.483300072,NA,374291.186899994,NA,343514.321200084,4744.15070004761,93438.2806000067,107249.208700028,127268.731000018,146611.809000024,174544.586000033,343514.441200066,377628.254500101,NA,347004.355000099,370413.653800031,337914.893200039,316155.185200041,336038.0076,375775.771800079,328445.899900049,NA,NA,NA,NA,NA,NA,343425.923100091,343507.477800013,NA,374291.109599988,NA,NA,376071.153500001,3999.65300003532,376920.335400035,3999.67789999209,376612.276900094,233957.212400041,NA,343390.052200062,4727.71290002856,NA,NA,182687.95130006,14,15664.9731999496,17,1,-35
100,96,2502.4325500126,"l","speed","ba1999wi","1","b","l","0","0","1",48,4,700,"Tue Mar 28 13:13:43 2023",3,"sehr schwer","speed","Experiment.osexp","Bild_s1_b_17.png",1080,"wi",1999,"ba","orangene","C:/Users/steff/Documents/Universität/Master Psychologie/SS 2022/Masterarbeit/Experiment/subject-7.csv",0,0,0,"a",-10,-10,"l","l",729.966099956073,729.966099956073,7,NA,388289.367499994,NA,343425.993300043,383086.227599997,389020.221800078,387981.42950004,67788.914600038,NA,NA,3999.34530002065,NA,378090.887800092,387988.252400071,377947.418100084,NA,387484.994200058,NA,383208.443400101,4744.15070004761,93438.2806000067,107249.208700028,127268.731000018,146611.809000024,174544.586000033,383208.586300025,389020.306100021,NA,387484.124200069,377646.867600037,337914.893200039,316155.185200041,336038.0076,375775.771800079,328445.899900049,NA,NA,NA,NA,NA,NA,343425.923100091,383201.463400037,NA,387484.95469999,NA,NA,377942.09180004,3999.65300003532,388289.5037001,3999.67789999209,387981.238400098,233957.212400041,NA,343390.052200062,4727.71290002856,NA,NA,182687.95130006,2,5004.8651000252,2,1,0
100,96,1808.75873332843,"l","speed","ba1999wi","1","o","a","0","1","0",49,4,700,"Tue Mar 28 13:13:43 2023",3,"sehr schwer","speed","Experiment.osexp","Bild_s1_o_19.png",1080,"wi",1999,"ba","orangene","C:/Users/steff/Documents/Universität/Master Psychologie/SS 2022/Masterarbeit/Experiment/subject-7.csv",0,0,0,"a",-5,-5,"a","a",421.411099960096,421.411099960096,7,NA,390181.892000022,NA,343425.993300043,383086.227599997,390604.047200061,389873.320300016,67788.914600038,NA,NA,3999.34530002065,NA,378090.887800092,389880.479700048,389345.273800078,NA,387484.994200058,NA,383208.443400101,4744.15070004761,93438.2806000067,107249.208700028,127268.731000018,146611.809000024,174544.586000033,383208.586300025,390604.118400021,NA,387484.124200069,377646.867600037,389044.484500075,316155.185200041,336038.0076,375775.771800079,328445.899900049,NA,NA,NA,NA,NA,NA,343425.923100091,383201.463400037,NA,387484.95469999,NA,NA,389339.820099995,3999.65300003532,390182.062400039,3999.67789999209,389873.244200018,233957.212400041,NA,343390.052200062,4727.71290002856,NA,NA,182687.95130006,3,5426.2761999853,3,1,0
100,96,1445.73612499516,"l","speed","ba1999wi","1","b","l","0","1","0",50,4,700,"Tue Mar 28 13:13:43 2023",2,"eher schwer","speed","Experiment.osexp","Bild_s2_b_13.png",1080,"wi",1999,"ba","orangene","C:/Users/steff/Documents/Universität/Master Psychologie/SS 2022/Masterarbeit/Experiment/subject-7.csv",0,0,0,"a",0,0,"l","l",356.668299995363,356.668299995363,7,NA,391798.604400014,NA,343425.993300043,383086.227599997,392156.104100053,391489.919200074,67788.914600038,NA,NA,3999.34530002065,NA,378090.887800092,391497.008800041,390931.817700039,NA,391004.125900101,NA,383208.443400101,4744.15070004761,93438.2806000067,107249.208700028,127268.731000018,146611.809000024,174544.586000033,383208.586300025,392156.174700009,NA,387484.124200069,377646.867600037,389044.484500075,316155.185200041,336038.0076,375775.771800079,390631.092600059,NA,NA,NA,NA,NA,NA,343425.923100091,383201.463400037,NA,391004.055500031,NA,NA,390926.390000037,3999.65300003532,391798.7992001,3999.67789999209,391489.839100046,233957.212400041,NA,343390.052200062,4727.71290002856,NA,NA,182687.95130006,4,5782.94449998066,4,1,0
100,96,1292.47846000362,"l","speed","ba1999wi","1","b","l","0","1","0",51,4,700,"Tue Mar 28 13:13:43 2023",2,"eher schwer","speed","Experiment.osexp","Bild_s2_b_23.png",1080,"wi",1999,"ba","orangene","C:/Users/steff/Documents/Universität/Master Psychologie/SS 2022/Masterarbeit/Experiment/subject-7.csv",0,0,0,"a",5,5,"l","l",679.447800037451,679.447800037451,7,NA,393299.910400063,NA,343425.993300043,383086.227599997,393980.106200092,392992.172900005,67788.914600038,NA,NA,3999.34530002065,NA,378090.887800092,392998.919200036,392484.169300064,NA,391004.125900101,NA,383208.443400101,4744.15070004761,93438.2806000067,107249.208700028,127268.731000018,146611.809000024,174544.586000033,383208.586300025,393980.189200025,NA,387484.124200069,377646.867600037,389044.484500075,316155.185200041,336038.0076,375775.771800079,392183.486000053,NA,NA,NA,NA,NA,NA,343425.923100091,383201.463400037,NA,391004.055500031,NA,NA,392478.798400029,3999.65300003532,393300.027700025,3999.67789999209,392992.092600092,233957.212400041,NA,343390.052200062,4727.71290002856,NA,NA,182687.95130006,5,6462.39230001811,5,1,0
100,96,1147.7769666623,"l","speed","ba1999wi","1","o","a","0","1","0",52,4,700,"Tue Mar 28 13:13:43 2023",1,"eher leicht","speed","Experiment.osexp","Bild_s3_o_17.png",1080,"wi",1999,"ba","orangene","C:/Users/steff/Documents/Universität/Master Psychologie/SS 2022/Masterarbeit/Experiment/subject-7.csv",0,0,0,"a",10,10,"a","a",424.269499955699,424.269499955699,7,NA,395155.044200015,NA,343425.993300043,383086.227599997,395580.178500037,394847.554000095,67788.914600038,NA,NA,3999.34530002065,NA,378090.887800092,394854.209500016,394299.92660007,NA,394370.530300075,NA,383208.443400101,4744.15070004761,93438.2806000067,107249.208700028,127268.731000018,146611.809000024,174544.586000033,383208.586300025,395580.259700073,NA,387484.124200069,377646.867600037,389044.484500075,316155.185200041,336038.0076,375775.771800079,393998.685900006,NA,NA,NA,NA,NA,NA,343425.923100091,383201.463400037,NA,394370.457500103,NA,NA,394294.467600062,3999.65300003532,395155.186000047,3999.67789999209,394847.478100099,233957.212400041,NA,343390.052200062,4727.71290002856,NA,NA,182687.95130006,6,6886.66179997381,6,1,0
85.7142857142857,96,1040.21292856695,"l","speed","ba1999wi","0","o","a","0","0","0",53,4,700,"Tue Mar 28 13:13:43 2023",1,"eher leicht","speed","Experiment.osexp","Bild_s3_o_10.png",1080,"wi",1999,"ba","orangene","C:/Users/steff/Documents/Universität/Master Psychologie/SS 2022/Masterarbeit/Experiment/subject-7.csv",0,1,0,"a",0,0,"l","l",394.828699994832,394.828699994832,7,NA,396736.542600091,NA,343425.993300043,383086.227599997,397132.383599994,396427.989499993,67788.914600038,NA,NA,3999.34530002065,NA,378090.887800092,396434.93410002,395895.810900023,NA,394370.530300075,NA,383208.443400101,4744.15070004761,93438.2806000067,107249.208700028,127268.731000018,146611.809000024,174544.586000033,383208.586300025,397132.493000012,NA,387484.124200069,377646.867600037,389044.484500075,316155.185200041,336038.0076,375775.771800079,395594.988199999,NA,NA,NA,NA,NA,NA,343425.923100091,383201.463400037,NA,394370.457500103,NA,NA,395890.299800085,3999.65300003532,396736.657800036,3999.67789999209,396427.908000071,233957.212400041,NA,343390.052200062,4727.71290002856,NA,NA,182687.95130006,6,7281.49049996864,7,1,0
87.5,96,980.467912493623,"l","speed","ba1999wi","1","b","l","0","1","0",54,4,700,"Tue Mar 28 13:13:43 2023",0,"sehr leicht","speed","Experiment.osexp","Bild_s4_b_20.png",1080,"wi",1999,"ba","orangene","C:/Users/steff/Documents/Universität/Master Psychologie/SS 2022/Masterarbeit/Experiment/subject-7.csv",0,0,0,"a",5,5,"l","l",562.252799980342,562.252799980342,7,NA,398329.112600069,NA,343425.993300043,383086.227599997,398892.440400086,398021.399900084,67788.914600038,NA,NA,3999.34530002065,NA,378090.887800092,398028.511799988,397455.84900002,NA,397535.291000037,NA,383208.443400101,4744.15070004761,93438.2806000067,107249.208700028,127268.731000018,146611.809000024,174544.586000033,383208.586300025,398892.505099997,NA,387484.124200069,377646.867600037,389044.484500075,316155.185200041,397155.13790003,375775.771800079,395594.988199999,NA,NA,NA,NA,NA,NA,343425.923100091,383201.463400037,NA,397535.214200034,NA,NA,397450.370000093,3999.65300003532,398329.213000019,3999.67789999209,398021.319300053,233957.212400041,NA,343390.052200062,4727.71290002856,NA,NA,182687.95130006,7,7843.74329994898,8,1,0
88.8888888888889,96,912.735855543158,"l","speed","ba1999wi","1","o","a","0","1","0",55,4,700,"Tue Mar 28 13:13:43 2023",0,"sehr leicht","speed","Experiment.osexp","Bild_s4_o_13.png",1080,"wi",1999,"ba","orangene","C:/Users/steff/Documents/Universität/Master Psychologie/SS 2022/Masterarbeit/Experiment/subject-7.csv",0,0,0,"a",10,10,"a","a",370.87939993944,370.87939993944,7,NA,400024.445099989,NA,343425.993300043,383086.227599997,400396.280000103,399715.986200026,67788.914600038,NA,NA,3999.34530002065,NA,378090.887800092,399723.40170003,399205.031900085,NA,397535.291000037,NA,383208.443400101,4744.15070004761,93438.2806000067,107249.208700028,127268.731000018,146611.809000024,174544.586000033,383208.586300025,400396.355000092,NA,387484.124200069,377646.867600037,389044.484500075,316155.185200041,397155.13790003,375775.771800079,398904.170399997,NA,NA,NA,NA,NA,NA,343425.923100091,383201.463400037,NA,397535.214200034,NA,NA,399199.635900091,3999.65300003532,400024.544600048,3999.67789999209,399715.906400001,233957.212400041,NA,343390.052200062,4727.71290002856,NA,NA,182687.95130006,8,8214.62269988842,9,1,0
90,96,856.92332998151,"l","speed","ba1999wi","1","b","l","0","1","0",56,4,700,"Tue Mar 28 13:13:43 2023",0,"sehr leicht","speed","Experiment.osexp","Bild_s4_b_23.png",1080,"wi",1999,"ba","orangene","C:/Users/steff/Documents/Universität/Master Psychologie/SS 2022/Masterarbeit/Experiment/subject-7.csv",0,0,0,"a",15,15,"l","l",354.610599926673,354.610599926673,7,NA,401592.780000065,NA,343425.993300043,383086.227599997,401948.141600005,401285.101599991,67788.914600038,NA,NA,3999.34530002065,NA,378090.887800092,401292.152200011,400712.974700029,NA,400789.687899989,NA,383208.443400101,4744.15070004761,93438.2806000067,107249.208700028,127268.731000018,146611.809000024,174544.586000033,383208.586300025,401948.218300007,NA,387484.124200069,377646.867600037,389044.484500075,316155.185200041,397155.13790003,375775.771800079,400412.317999988,NA,NA,NA,NA,NA,NA,343425.923100091,383201.463400037,NA,400789.614500012,NA,NA,400707.598000066,3999.65300003532,401592.85980009,3999.67789999209,401285.018300056,233957.212400041,NA,343390.052200062,4727.71290002856,NA,NA,182687.95130006,9,8569.2332998151,10,1,0
90.9090909090909,96,825.835390894843,"l","speed","ba1999wi","1","o","a","0","1","0",57,4,700,"Tue Mar 28 13:13:43 2023",0,"sehr leicht","speed","Experiment.osexp","Bild_s4_o_1.png",1080,"wi",1999,"ba","orangene","C:/Users/steff/Documents/Universität/Master Psychologie/SS 2022/Masterarbeit/Experiment/subject-7.csv",0,0,0,"a",20,20,"a","a",514.956000028178,514.956000028178,7,NA,403112.430200097,NA,343425.993300043,383086.227599997,403628.09880008,402803.592800046,67788.914600038,NA,NA,3999.34530002065,NA,378090.887800092,402810.876600095,402267.803300056,NA,400789.687899989,NA,383208.443400101,4744.15070004761,93438.2806000067,107249.208700028,127268.731000018,146611.809000024,174544.586000033,383208.586300025,403628.17260006,NA,387484.124200069,377646.867600037,389044.484500075,316155.185200041,397155.13790003,375775.771800079,401967.188500101,NA,NA,NA,NA,NA,NA,343425.923100091,383201.463400037,NA,400789.614500012,NA,NA,402262.472800096,3999.65300003532,403112.513000029,3999.67789999209,402803.514000028,233957.212400041,NA,343390.052200062,4727.71290002856,NA,NA,182687.95130006,10,9084.18929984327,11,1,0
91.6666666666667,96,786.077499991128,"l","speed","ba1999wi","1","b","l","0","1","0",58,4,700,"Tue Mar 28 13:13:43 2023",1,"eher leicht","speed","Experiment.osexp","Bild_s3_b_11.png",1080,"wi",1999,"ba","orangene","C:/Users/steff/Documents/Universität/Master Psychologie/SS 2022/Masterarbeit/Experiment/subject-7.csv",0,0,0,"a",25,25,"l","l",348.740700050257,348.740700050257,7,NA,404830.51130001,NA,343425.993300043,383086.227599997,405180.010000011,404522.160400054,67788.914600038,NA,NA,3999.34530002065,NA,378090.887800092,404529.393700068,403954.989299993,NA,404026.849400019,NA,383208.443400101,4744.15070004761,93438.2806000067,107249.208700028,127268.731000018,146611.809000024,174544.586000033,383208.586300025,405180.0828001,NA,387484.124200069,377646.867600037,389044.484500075,316155.185200041,397155.13790003,375775.771800079,403654.463400017,NA,NA,NA,NA,NA,NA,343425.923100091,383201.463400037,NA,404026.778900065,NA,NA,403949.611100019,3999.65300003532,404830.71400004,3999.67789999209,404522.016200004,233957.212400041,NA,343390.052200062,4727.71290002856,NA,NA,182687.95130006,11,9432.92999989353,12,1,0
92.3076923076923,96,795.091246147282,"l","speed","ba1999wi","1","o","a","0","0","1",59,4,700,"Tue Mar 28 13:13:43 2023",1,"eher leicht","speed","Experiment.osexp","Bild_s3_o_15.png",1080,"wi",1999,"ba","orangene","C:/Users/steff/Documents/Universität/Master Psychologie/SS 2022/Masterarbeit/Experiment/subject-7.csv",0,0,0,"a",15,15,"a","a",903.256200021133,903.256200021133,7,NA,406340.115500032,NA,343425.993300043,383086.227599997,407244.2667,406031.860899995,67788.914600038,NA,NA,3999.34530002065,NA,378090.887800092,406039.078900008,405495.894000051,NA,404026.849400019,NA,383208.443400101,4744.15070004761,93438.2806000067,107249.208700028,127268.731000018,146611.809000024,174544.586000033,383208.586300025,407244.362200028,NA,387484.124200069,377646.867600037,389044.484500075,316155.185200041,397155.13790003,375775.771800079,405195.256800042,NA,NA,NA,NA,NA,NA,343425.923100091,383201.463400037,NA,404026.778900065,NA,NA,405490.48040004,3999.65300003532,406340.204500011,3999.67789999209,406031.779400073,233957.212400041,NA,343390.052200062,4727.71290002856,NA,NA,182687.95130006,12,10336.1861999147,13,1,0
85.7142857142857,96,781.182335706295,"l","speed","ba1999wi","0","b","l","0","0","0",60,4,700,"Tue Mar 28 13:13:43 2023",2,"eher schwer","speed","Experiment.osexp","Bild_s2_b_6.png",1080,"wi",1999,"ba","orangene","C:/Users/steff/Documents/Universität/Master Psychologie/SS 2022/Masterarbeit/Experiment/subject-7.csv",0,1,0,"a",5,5,"a","a",600.366499973461,600.366499973461,7,NA,408434.932200005,NA,343425.993300043,383086.227599997,409036.037900019,408127.214200096,67788.914600038,NA,NA,3999.34530002065,NA,378090.887800092,408134.25230002,407561.708500027,NA,407633.818700095,NA,383208.443400101,4744.15070004761,93438.2806000067,107249.208700028,127268.731000018,146611.809000024,174544.586000033,383208.586300025,409036.132900044,NA,387484.124200069,377646.867600037,407261.093200068,316155.185200041,397155.13790003,375775.771800079,405195.256800042,NA,NA,NA,NA,NA,NA,343425.923100091,383201.463400037,NA,407633.746800013,NA,NA,407556.366700097,3999.65300003532,408435.1128001,3999.67789999209,408127.137400093,233957.212400041,NA,343390.052200062,4727.71290002856,NA,NA,182687.95130006,12,10936.5526998881,14,1,0
80,96,778.599326654027,"l","speed","ba1999wi","0","o","a","0","0","0",61,4,700,"Tue Mar 28 13:13:43 2023",2,"eher schwer","speed","Experiment.osexp","Bild_s2_o_23.png",1080,"wi",1999,"ba","orangene","C:/Users/steff/Documents/Universität/Master Psychologie/SS 2022/Masterarbeit/Experiment/subject-7.csv",0,0,1,"a",-5,-5,"l","l",742.437199922279,742.437199922279,7,NA,410196.932899999,NA,343425.993300043,383086.227599997,410940.111200092,409888.782600057,67788.914600038,NA,NA,3999.34530002065,NA,378090.887800092,409896.048700088,409354.891500087,NA,407633.818700095,NA,383208.443400101,4744.15070004761,93438.2806000067,107249.208700028,127268.731000018,146611.809000024,174544.586000033,383208.586300025,410940.206800005,NA,387484.124200069,377646.867600037,407261.093200068,316155.185200041,409054.171700031,375775.771800079,405195.256800042,NA,NA,NA,NA,NA,NA,343425.923100091,383201.463400037,NA,407633.746800013,NA,NA,409349.514400004,3999.65300003532,410197.02140009,3999.67789999209,409888.704200042,233957.212400041,NA,343390.052200062,4727.71290002856,NA,NA,182687.95130006,12,11678.9898998104,15,1,0
81.25,96,766.89291249204,"l","speed","ba1999wi","1","b","l","0","1","0",62,4,700,"Tue Mar 28 13:13:43 2023",3,"sehr schwer","speed","Experiment.osexp","Bild_s1_b_12.png",1080,"wi",1999,"ba","orangene","C:/Users/steff/Documents/Universität/Master Psychologie/SS 2022/Masterarbeit/Experiment/subject-7.csv",0,0,0,"a",0,0,"l","l",591.29670006223,591.29670006223,7,NA,412139.9829,NA,343425.993300043,383086.227599997,412732.075500069,411831.548499991,67788.914600038,NA,NA,3999.34530002065,NA,378090.887800092,411838.934200001,411266.336000059,NA,411341.460000025,NA,383208.443400101,4744.15070004761,93438.2806000067,107249.208700028,127268.731000018,146611.809000024,174544.586000033,383208.586300025,412732.149800053,NA,387484.124200069,377646.867600037,407261.093200068,410965.76739999,409054.171700031,375775.771800079,405195.256800042,NA,NA,NA,NA,NA,NA,343425.923100091,383201.463400037,NA,411341.386600048,NA,NA,411260.930199991,3999.65300003532,412140.149499988,3999.67789999209,411831.469200086,233957.212400041,NA,343390.052200062,4727.71290002856,NA,NA,182687.95130006,13,12270.2865998726,16,1,0
76.4705882352941,96,759.66607646414,"l","speed","ba1999wi","0","b","l","0","0","0",63,4,700,"Tue Mar 28 13:13:43 2023",3,"sehr schwer","speed","Experiment.osexp","Bild_s1_b_19.png",1080,"wi",1999,"ba","orangene","C:/Users/steff/Documents/Universität/Master Psychologie/SS 2022/Masterarbeit/Experiment/subject-7.csv",0,1,0,"a",-10,-10,"a","a",644.03670001775,644.03670001775,7,NA,413895.29720007,NA,343425.993300043,383086.227599997,414540.245200042,413587.253900012,67788.914600038,NA,NA,3999.34530002065,NA,378090.887800092,413594.193900004,413050.950200064,NA,411341.460000025,NA,383208.443400101,4744.15070004761,93438.2806000067,107249.208700028,127268.731000018,146611.809000024,174544.586000033,383208.586300025,414540.339800064,NA,387484.124200069,377646.867600037,407261.093200068,410965.76739999,409054.171700031,375775.771800079,412750.660800026,NA,NA,NA,NA,NA,NA,343425.923100091,383201.463400037,NA,411341.386600048,NA,NA,413045.624500024,3999.65300003532,413895.388600067,3999.67789999209,413587.174799992,233957.212400041,NA,343390.052200062,4727.71290002856,NA,NA,182687.95130006,13,12914.3232998904,17,1,0
50,96,1064.51080000261,"l","accuracy","ba1999wi","0","o","a","0","0","0",64,5,700,"Tue Mar 28 13:13:43 2023",3,"sehr schwer","speed","Experiment.osexp","Bild_s1_o_12.png",1080,"wi",1999,"ba","orangene","C:/Users/steff/Documents/Universität/Master Psychologie/SS 2022/Masterarbeit/Experiment/subject-7.csv",1,0,0,"a",-20,-10,"l","l",920.266599976458,920.266599976458,7,NA,422147.036700044,NA,420062.819899991,419993.787500076,423068.419400021,421838.405700051,67788.914600038,NA,NA,3999.34530002065,NA,414998.04169999,421845.728400047,414856.101499987,NA,421357.191000017,NA,420146.610800061,4744.15070004761,93438.2806000067,107249.208700028,127268.731000018,146611.809000024,174544.586000033,420146.758100018,423068.492899998,NA,421356.287600007,377646.867600037,407261.093200068,410965.76739999,414555.585900089,375775.771800079,412750.660800026,NA,NA,NA,NA,NA,NA,420062.741900096,420139.862200012,NA,421357.150500058,NA,NA,414850.697100046,3999.65300003532,422147.222600062,3999.67789999209,421838.213600102,233957.212400041,NA,420027.111200034,4727.71290002856,NA,NA,182687.95130006,1,2129.02160000522,2,1,-10
33.3333333333333,96,974.351666673707,"l","accuracy","ba1999wi","0","b","l","0","0","0",65,5,700,"Tue Mar 28 13:13:43 2023",3,"sehr schwer","speed","Experiment.osexp","Bild_s1_b_18.png",1080,"wi",1999,"ba","orangene","C:/Users/steff/Documents/Universität/Master Psychologie/SS 2022/Masterarbeit/Experiment/subject-7.csv",1,0,0,"a",-30,-20,"a","a",794.033400015905,794.033400015905,7,NA,424225.273900083,NA,420062.819899991,419993.787500076,425020.074600005,423916.950000101,67788.914600038,NA,NA,3999.34530002065,NA,414998.04169999,423924.215900013,423391.483000014,NA,421357.191000017,NA,420146.610800061,4744.15070004761,93438.2806000067,107249.208700028,127268.731000018,146611.809000024,174544.586000033,420146.758100018,425020.138900029,NA,421356.287600007,423090.722599998,407261.093200068,410965.76739999,414555.585900089,375775.771800079,412750.660800026,NA,NA,NA,NA,NA,NA,420062.741900096,420139.862200012,NA,421357.150500058,NA,NA,423386.02440001,3999.65300003532,424225.400199997,3999.67789999209,423916.870000074,233957.212400041,NA,420027.111200034,4727.71290002856,NA,NA,182687.95130006,1,2923.05500002112,3,1,-10
50,96,1009.37992500258,"l","accuracy","ba1999wi","1","o","a","1","0","0",66,5,700,"Tue Mar 28 13:13:43 2023",2,"eher schwer","speed","Experiment.osexp","Bild_s2_o_13.png",1080,"wi",1999,"ba","orangene","C:/Users/steff/Documents/Universität/Master Psychologie/SS 2022/Masterarbeit/Experiment/subject-7.csv",0,0,0,"a",-25,-15,"a","a",1114.46469998918,1114.46469998918,7,NA,426192.90740008,NA,420062.819899991,419993.787500076,427308.198700077,425885.314100073,67788.914600038,NA,NA,3999.34530002065,NA,414998.04169999,425892.372600036,425331.472399994,NA,425403.422600008,NA,420146.610800061,4744.15070004761,93438.2806000067,107249.208700028,127268.731000018,146611.809000024,174544.586000033,420146.758100018,427308.264799998,NA,421356.287600007,425030.641900026,407261.093200068,410965.76739999,414555.585900089,375775.771800079,412750.660800026,NA,NA,NA,NA,NA,NA,420062.741900096,420139.862200012,NA,425403.349800035,NA,NA,425326.028700103,3999.65300003532,426192.998900078,3999.67789999209,425885.221400065,233957.212400041,NA,420027.111200034,4727.71290002856,NA,NA,182687.95130006,2,4037.51970001031,4,1,-10
60,96,968.832840002142,"l","accuracy","ba1999wi","1","b","l","1","0","0",67,5,700,"Tue Mar 28 13:13:43 2023",2,"eher schwer","speed","Experiment.osexp","Bild_s2_b_4.png",1080,"wi",1999,"ba","orangene","C:/Users/steff/Documents/Universität/Master Psychologie/SS 2022/Masterarbeit/Experiment/subject-7.csv",0,0,0,"a",-20,-10,"l","l",806.644500000402,806.644500000402,7,NA,428452.745600021,NA,420062.819899991,419993.787500076,429260.31110005,428142.982700025,67788.914600038,NA,NA,3999.34530002065,NA,414998.04169999,428150.728300097,427635.668300092,NA,425403.422600008,NA,420146.610800061,4744.15070004761,93438.2806000067,107249.208700028,127268.731000018,146611.809000024,174544.586000033,420146.758100018,429260.375700076,NA,421356.287600007,425030.641900026,407261.093200068,410965.76739999,414555.585900089,427335.176900029,412750.660800026,NA,NA,NA,NA,NA,NA,420062.741900096,420139.862200012,NA,425403.349800035,NA,NA,427630.370600033,3999.65300003532,428452.850300004,3999.67789999209,428142.907200032,233957.212400041,NA,420027.111200034,4727.71290002856,NA,NA,182687.95130006,3,4844.16420001071,5,1,-10
66.6666666666667,96,927.863716671709,"l","accuracy","ba1999wi","1","b","l","1","0","0",68,5,700,"Tue Mar 28 13:13:43 2023",1,"eher leicht","speed","Experiment.osexp","Bild_s3_b_5.png",1080,"wi",1999,"ba","orangene","C:/Users/steff/Documents/Universität/Master Psychologie/SS 2022/Masterarbeit/Experiment/subject-7.csv",0,0,0,"a",-15,-5,"l","l",723.018100019544,723.018100019544,7,NA,430440.347400028,NA,420062.819899991,419993.787500076,431164.099200047,430132.771700039,67788.914600038,NA,NA,3999.34530002065,NA,414998.04169999,430139.798899996,429576.737500029,NA,429648.054799996,NA,420146.610800061,4744.15070004761,93438.2806000067,107249.208700028,127268.731000018,146611.809000024,174544.586000033,420146.758100018,431164.166200091,NA,421356.287600007,425030.641900026,407261.093200068,410965.76739999,414555.585900089,429276.016000076,412750.660800026,NA,NA,NA,NA,NA,NA,420062.741900096,420139.862200012,NA,429647.981400019,NA,NA,429571.254500072,3999.65300003532,430440.442700055,3999.67789999209,430132.690900005,233957.212400041,NA,420027.111200034,4727.71290002856,NA,NA,182687.95130006,4,5567.18230003025,6,1,-10
71.4285714285714,96,912.633399994645,"l","accuracy","ba1999wi","1","b","l","1","0","0",69,5,700,"Tue Mar 28 13:13:43 2023",1,"eher leicht","speed","Experiment.osexp","Bild_s3_b_16.png",1080,"wi",1999,"ba","orangene","C:/Users/steff/Documents/Universität/Master Psychologie/SS 2022/Masterarbeit/Experiment/subject-7.csv",0,0,0,"a",-10,0,"l","l",821.251499932259,821.251499932259,7,NA,432325.96060005,NA,420062.819899991,419993.787500076,433147.950500017,432018.014600035,67788.914600038,NA,NA,3999.34530002065,NA,414998.04169999,432025.04149999,431497.651600046,NA,429648.054799996,NA,420146.610800061,4744.15070004761,93438.2806000067,107249.208700028,127268.731000018,146611.809000024,174544.586000033,420146.758100018,433148.015400045,NA,421356.287600007,425030.641900026,407261.093200068,410965.76739999,414555.585900089,431196.329000057,412750.660800026,NA,NA,NA,NA,NA,NA,420062.741900096,420139.862200012,NA,429647.981400019,NA,NA,431492.261900101,3999.65300003532,432326.181300101,3999.67789999209,432017.934400006,233957.212400041,NA,420027.111200034,4727.71290002856,NA,NA,182687.95130006,5,6388.43379996251,7,1,-10
75,96,863.026399994851,"l","accuracy","ba1999wi","1","b","l","1","0","0",70,5,700,"Tue Mar 28 13:13:43 2023",0,"sehr leicht","speed","Experiment.osexp","Bild_s4_b_15.png",1080,"wi",1999,"ba","orangene","C:/Users/steff/Documents/Universität/Master Psychologie/SS 2022/Masterarbeit/Experiment/subject-7.csv",0,0,0,"a",-5,5,"l","l",515.777399996296,515.777399996296,7,NA,434327.622200013,NA,420062.819899991,419993.787500076,434844.304700033,434019.730900065,67788.914600038,NA,NA,3999.34530002065,NA,414998.04169999,434026.461300091,433469.599000062,NA,433542.630100041,NA,420146.610800061,4744.15070004761,93438.2806000067,107249.208700028,127268.731000018,146611.809000024,174544.586000033,420146.758100018,434844.367000042,NA,421356.287600007,425030.641900026,407261.093200068,410965.76739999,414555.585900089,433168.074100045,412750.660800026,NA,NA,NA,NA,NA,NA,420062.741900096,420139.862200012,NA,433542.555900058,NA,NA,433464.053400094,3999.65300003532,434327.703200048,3999.67789999209,434019.654800068,233957.212400041,NA,420027.111200034,4727.71290002856,NA,NA,182687.95130006,6,6904.21119995881,8,1,-10
77.7777777777778,96,841.894533329954,"l","accuracy","ba1999wi","1","b","l","1","0","0",71,5,700,"Tue Mar 28 13:13:43 2023",0,"sehr leicht","speed","Experiment.osexp","Bild_s4_b_2.png",1080,"wi",1999,"ba","orangene","C:/Users/steff/Documents/Universität/Master Psychologie/SS 2022/Masterarbeit/Experiment/subject-7.csv",0,0,0,"a",0,10,"l","l",672.839600010775,672.839600010775,7,NA,435994.394200039,NA,420062.819899991,419993.787500076,436667.960899998,435686.333000078,67788.914600038,NA,NA,3999.34530002065,NA,414998.04169999,435693.354399991,435164.844000014,NA,433542.630100041,NA,420146.610800061,4744.15070004761,93438.2806000067,107249.208700028,127268.731000018,146611.809000024,174544.586000033,420146.758100018,436668.025900028,NA,421356.287600007,425030.641900026,407261.093200068,410965.76739999,414555.585900089,434864.18620008,412750.660800026,NA,NA,NA,NA,NA,NA,420062.741900096,420139.862200012,NA,433542.555900058,NA,NA,435159.455200075,3999.65300003532,435994.590000017,3999.67789999209,435686.251500039,233957.212400041,NA,420027.111200034,4727.71290002856,NA,NA,182687.95130006,7,7577.05079996958,9,1,-10
80,96,803.346089995466,"l","accuracy","ba1999wi","1","o","a","1","0","0",72,5,700,"Tue Mar 28 13:13:43 2023",0,"sehr leicht","speed","Experiment.osexp","Bild_s4_o_12.png",1080,"wi",1999,"ba","orangene","C:/Users/steff/Documents/Universität/Master Psychologie/SS 2022/Masterarbeit/Experiment/subject-7.csv",0,0,0,"a",5,15,"a","a",456.410099985078,456.410099985078,7,NA,437858.936800039,NA,420062.819899991,419993.787500076,438316.063300008,437551.075700088,67788.914600038,NA,NA,3999.34530002065,NA,414998.04169999,437557.976600016,436988.100500079,NA,437065.291300067,NA,420146.610800061,4744.15070004761,93438.2806000067,107249.208700028,127268.731000018,146611.809000024,174544.586000033,420146.758100018,438316.130300052,NA,421356.287600007,425030.641900026,407261.093200068,410965.76739999,414555.585900089,436686.850300059,412750.660800026,NA,NA,NA,NA,NA,NA,420062.741900096,420139.862200012,NA,437065.216800082,NA,NA,436982.591000036,3999.65300003532,437859.019500087,3999.67789999209,437550.998800085,233957.212400041,NA,420027.111200034,4727.71290002856,NA,NA,182687.95130006,8,8033.46089995466,10,1,-10
81.8181818181818,96,770.936372721652,"l","accuracy","ba1999wi","1","o","a","1","0","0",73,5,700,"Tue Mar 28 13:13:43 2023",0,"sehr leicht","speed","Experiment.osexp","Bild_s4_o_13.png",1080,"wi",1999,"ba","orangene","C:/Users/steff/Documents/Universität/Master Psychologie/SS 2022/Masterarbeit/Experiment/subject-7.csv",0,0,0,"a",10,20,"a","a",446.839199983515,446.839199983515,7,NA,439484.510100097,NA,420062.819899991,419993.787500076,439932.134800008,439176.887800102,67788.914600038,NA,NA,3999.34530002065,NA,414998.04169999,439183.786700014,438645.360700088,NA,437065.291300067,NA,420146.610800061,4744.15070004761,93438.2806000067,107249.208700028,127268.731000018,146611.809000024,174544.586000033,420146.758100018,439932.202800061,NA,421356.287600007,425030.641900026,407261.093200068,410965.76739999,414555.585900089,438344.675400062,412750.660800026,NA,NA,NA,NA,NA,NA,420062.741900096,420139.862200012,NA,437065.216800082,NA,NA,438639.960100059,3999.65300003532,439484.592400026,3999.67789999209,439176.809200086,233957.212400041,NA,420027.111200034,4727.71290002856,NA,NA,182687.95130006,9,8480.30009993818,11,1,-10
83.3333333333333,96,776.149633330836,"l","accuracy","ba1999wi","1","b","l","1","0","0",74,5,700,"Tue Mar 28 13:13:43 2023",1,"eher leicht","speed","Experiment.osexp","Bild_s3_b_2.png",1080,"wi",1999,"ba","orangene","C:/Users/steff/Documents/Universität/Master Psychologie/SS 2022/Masterarbeit/Experiment/subject-7.csv",0,0,0,"a",15,25,"l","l",833.495500031859,833.495500031859,7,NA,441129.708699999,NA,420062.819899991,419993.787500076,441964.492600062,440821.889100014,67788.914600038,NA,NA,3999.34530002065,NA,414998.04169999,440828.95980007,440259.707899997,NA,440331.493400037,NA,420146.610800061,4744.15070004761,93438.2806000067,107249.208700028,127268.731000018,146611.809000024,174544.586000033,420146.758100018,441964.574400103,NA,421356.287600007,425030.641900026,407261.093200068,410965.76739999,414555.585900089,439958.432400017,412750.660800026,NA,NA,NA,NA,NA,NA,420062.741900096,420139.862200012,NA,440331.418700051,NA,NA,440254.357500002,3999.65300003532,441129.916300066,3999.67789999209,440821.809699992,233957.212400041,NA,420027.111200034,4727.71290002856,NA,NA,182687.95130006,10,9313.79559997004,12,1,-10
84.6153846153846,96,758.167646153687,"l","accuracy","ba1999wi","1","o","a","1","0","0",75,5,700,"Tue Mar 28 13:13:43 2023",1,"eher leicht","speed","Experiment.osexp","Bild_s3_o_9.png",1080,"wi",1999,"ba","orangene","C:/Users/steff/Documents/Universität/Master Psychologie/SS 2022/Masterarbeit/Experiment/subject-7.csv",0,0,0,"a",20,30,"a","a",542.383800027892,542.383800027892,7,NA,443132.957500056,NA,420062.819899991,419993.787500076,443675.983300083,442824.914600002,67788.914600038,NA,NA,3999.34530002065,NA,414998.04169999,442831.872600014,442289.494900033,NA,440331.493400037,NA,420146.610800061,4744.15070004761,93438.2806000067,107249.208700028,127268.731000018,146611.809000024,174544.586000033,420146.758100018,443676.051500021,NA,421356.287600007,425030.641900026,407261.093200068,410965.76739999,414555.585900089,441988.657500013,412750.660800026,NA,NA,NA,NA,NA,NA,420062.741900096,420139.862200012,NA,440331.418700051,NA,NA,442284.094600007,3999.65300003532,443133.04310001,3999.67789999209,442824.83190007,233957.212400041,NA,420027.111200034,4727.71290002856,NA,NA,182687.95130006,11,9856.17939999793,13,1,-10
78.5714285714286,96,748.088257137819,"l","accuracy","ba1999wi","0","o","a","0","0","0",76,5,700,"Tue Mar 28 13:13:43 2023",2,"eher schwer","speed","Experiment.osexp","Bild_s2_o_14.png",1080,"wi",1999,"ba","orangene","C:/Users/steff/Documents/Universität/Master Psychologie/SS 2022/Masterarbeit/Experiment/subject-7.csv",1,0,0,"a",10,20,"l","l",617.05619993154,617.05619993154,7,NA,444882.289500092,NA,420062.819899991,419993.787500076,445500.153700006,444574.263800052,67788.914600038,NA,NA,3999.34530002065,NA,414998.04169999,444581.249800045,444005.392300081,NA,444082.711099996,NA,420146.610800061,4744.15070004761,93438.2806000067,107249.208700028,127268.731000018,146611.809000024,174544.586000033,420146.758100018,445500.225700089,NA,421356.287600007,425030.641900026,407261.093200068,410965.76739999,414555.585900089,443704.741800088,412750.660800026,NA,NA,NA,NA,NA,NA,420062.741900096,420139.862200012,NA,444082.637400017,NA,NA,444000.019700034,3999.65300003532,444882.379900082,3999.67789999209,444574.041499989,233957.212400041,NA,420027.111200034,4727.71290002856,NA,NA,182687.95130006,11,10473.2355999295,14,1,-10
80,96,761.801306662771,"l","accuracy","ba1999wi","1","b","l","1","0","0",77,5,700,"Tue Mar 28 13:13:43 2023",2,"eher schwer","speed","Experiment.osexp","Bild_s2_b_16.png",1080,"wi",1999,"ba","orangene","C:/Users/steff/Documents/Universität/Master Psychologie/SS 2022/Masterarbeit/Experiment/subject-7.csv",0,0,0,"a",15,25,"l","l",953.784000012092,953.784000012092,7,NA,446657.557300059,NA,420062.819899991,419993.787500076,447612.216600101,446349.600600079,67788.914600038,NA,NA,3999.34530002065,NA,414998.04169999,446356.482200092,445818.179700058,NA,444082.711099996,NA,420146.610800061,4744.15070004761,93438.2806000067,107249.208700028,127268.731000018,146611.809000024,174544.586000033,420146.758100018,447612.28640005,NA,421356.287600007,445517.640200094,407261.093200068,410965.76739999,414555.585900089,443704.741800088,412750.660800026,NA,NA,NA,NA,NA,NA,420062.741900096,420139.862200012,NA,444082.637400017,NA,NA,445812.802800094,3999.65300003532,446657.645500032,3999.67789999209,446349.52170006,233957.212400041,NA,420027.111200034,4727.71290002856,NA,NA,182687.95130006,12,11427.0195999416,15,1,-10
75,96,780.157900000631,"l","accuracy","ba1999wi","0","b","l","0","0","0",78,5,700,"Tue Mar 28 13:13:43 2023",3,"sehr schwer","speed","Experiment.osexp","Bild_s1_b_10.png",1080,"wi",1999,"ba","orangene","C:/Users/steff/Documents/Universität/Master Psychologie/SS 2022/Masterarbeit/Experiment/subject-7.csv",1,0,0,"a",5,15,"a","a",1055.50680006854,1055.50680006854,7,NA,448811.741900048,NA,420062.819899991,419993.787500076,449868.1201,448503.865400096,67788.914600038,NA,NA,3999.34530002065,NA,414998.04169999,448510.965300025,447936.897500069,NA,448010.876600049,NA,420146.610800061,4744.15070004761,93438.2806000067,107249.208700028,127268.731000018,146611.809000024,174544.586000033,420146.758100018,449868.187600048,NA,421356.287600007,445517.640200094,407261.093200068,410965.76739999,414555.585900089,447636.138100061,412750.660800026,NA,NA,NA,NA,NA,NA,420062.741900096,420139.862200012,NA,448010.804600082,NA,NA,447931.570800021,3999.65300003532,448811.917399988,3999.67789999209,448503.784300061,233957.212400041,NA,420027.111200034,4727.71290002856,NA,NA,182687.95130006,12,12482.5264000101,16,1,-10
76.4705882352941,96,796.982252942946,"l","accuracy","ba1999wi","1","b","l","1","0","0",79,5,700,"Tue Mar 28 13:13:43 2023",3,"sehr schwer","speed","Experiment.osexp","Bild_s1_b_1.png",1080,"wi",1999,"ba","orangene","C:/Users/steff/Documents/Universität/Master Psychologie/SS 2022/Masterarbeit/Experiment/subject-7.csv",0,0,0,"a",10,20,"l","l",1066.17190001998,1066.17190001998,7,NA,451025.131500093,NA,420062.819899991,419993.787500076,452092.267,450717.145000002,67788.914600038,NA,NA,3999.34530002065,NA,414998.04169999,450724.561800016,450185.513500008,NA,448010.876600049,NA,420146.610800061,4744.15070004761,93438.2806000067,107249.208700028,127268.731000018,146611.809000024,174544.586000033,420146.758100018,452092.335600057,NA,421356.287600007,449885.100200074,407261.093200068,410965.76739999,414555.585900089,447636.138100061,412750.660800026,NA,NA,NA,NA,NA,NA,420062.741900096,420139.862200012,NA,448010.804600082,NA,NA,450180.155600072,3999.65300003532,451025.226099999,3999.67789999209,450717.065500095,233957.212400041,NA,420027.111200034,4727.71290002856,NA,NA,182687.95130006,13,13548.6983000301,17,1,-10
100,96,1246.65069993353,"l","speed","ba1999wi","1","b","l","0","1","0",80,6,700,"Tue Mar 28 13:13:43 2023",3,"sehr schwer","speed","Experiment.osexp","Bild_s1_b_5.png",1080,"wi",1999,"ba","orangene","C:/Users/steff/Documents/Universität/Master Psychologie/SS 2022/Masterarbeit/Experiment/subject-7.csv",0,0,0,"a",15,5,"l","l",556.791799957864,556.791799957864,7,NA,460398.519900045,NA,420062.819899991,457553.697800031,460956.134400098,460090.413500089,67788.914600038,NA,NA,3999.34530002065,NA,452558.383000083,460097.331200028,452418.916200055,NA,459613.15660004,NA,457674.801400048,4744.15070004761,93438.2806000067,107249.208700028,127268.731000018,146611.809000024,174544.586000033,457674.945300096,460956.218000036,NA,459612.257600063,449885.100200074,407261.093200068,410965.76739999,414555.585900089,452117.280000006,412750.660800026,NA,NA,NA,NA,NA,NA,420062.741900096,457667.661300045,NA,459613.117900095,NA,NA,452413.554000086,3999.65300003532,460398.613000056,3999.67789999209,460090.224400046,233957.212400041,NA,420027.111200034,4727.71290002856,NA,NA,182687.95130006,2,2493.30139986705,2,1,10
100,96,973.695933314351,"l","speed","ba1999wi","1","o","a","0","1","0",81,6,700,"Tue Mar 28 13:13:43 2023",3,"sehr schwer","speed","Experiment.osexp","Bild_s1_o_6.png",1080,"wi",1999,"ba","orangene","C:/Users/steff/Documents/Universität/Master Psychologie/SS 2022/Masterarbeit/Experiment/subject-7.csv",0,0,0,"a",20,10,"a","a",427.786400076002,427.786400076002,7,NA,462095.526600024,NA,420062.819899991,457553.697800031,462524.070000043,461787.421300076,67788.914600038,NA,NA,3999.34530002065,NA,452558.383000083,461794.453700073,461274.312000023,NA,459613.15660004,NA,457674.801400048,4744.15070004761,93438.2806000067,107249.208700028,127268.731000018,146611.809000024,174544.586000033,457674.945300096,462524.142200011,NA,459612.257600063,449885.100200074,407261.093200068,410965.76739999,414555.585900089,452117.280000006,460973.964600009,NA,NA,NA,NA,NA,NA,420062.741900096,457667.661300045,NA,459613.117900095,NA,NA,461268.892200082,3999.65300003532,462095.628799987,3999.67789999209,461787.346800091,233957.212400041,NA,420027.111200034,4727.71290002856,NA,NA,182687.95130006,3,2921.08779994305,3,1,10
100,96,820.093649992486,"l","speed","ba1999wi","1","b","l","0","1","0",82,6,700,"Tue Mar 28 13:13:43 2023",2,"eher schwer","speed","Experiment.osexp","Bild_s2_b_24.png",1080,"wi",1999,"ba","orangene","C:/Users/steff/Documents/Universität/Master Psychologie/SS 2022/Masterarbeit/Experiment/subject-7.csv",0,0,0,"a",25,15,"l","l",359.286800026894,359.286800026894,7,NA,463715.990500059,NA,420062.819899991,457553.697800031,464076.10340009,463408.382600057,67788.914600038,NA,NA,3999.34530002065,NA,452558.383000083,463415.592900012,462852.487900062,NA,462925.493400078,NA,457674.801400048,4744.15070004761,93438.2806000067,107249.208700028,127268.731000018,146611.809000024,174544.586000033,457674.945300096,464076.171600027,NA,459612.257600063,449885.100200074,407261.093200068,410965.76739999,414555.585900089,452117.280000006,462551.179100061,NA,NA,NA,NA,NA,NA,420062.741900096,457667.661300045,NA,462925.421499997,NA,NA,462846.951800049,3999.65300003532,463716.111400048,3999.67789999209,463408.305900055,233957.212400041,NA,420027.111200034,4727.71290002856,NA,NA,182687.95130006,4,3280.37459996995,4,1,10
100,96,736.826879996806,"l","speed","ba1999wi","1","o","a","0","1","0",83,6,700,"Tue Mar 28 13:13:43 2023",2,"eher schwer","speed","Experiment.osexp","Bild_s2_o_7.png",1080,"wi",1999,"ba","orangene","C:/Users/steff/Documents/Universität/Master Psychologie/SS 2022/Masterarbeit/Experiment/subject-7.csv",0,0,0,"a",30,20,"a","a",403.759800014086,403.759800014086,7,NA,465223.55980007,NA,420062.819899991,457553.697800031,465628.061000025,464915.724300081,67788.914600038,NA,NA,3999.34530002065,NA,452558.383000083,464922.537100036,464403.640300035,NA,462925.493400078,NA,457674.801400048,4744.15070004761,93438.2806000067,107249.208700028,127268.731000018,146611.809000024,174544.586000033,457674.945300096,465628.141400055,NA,459612.257600063,449885.100200074,407261.093200068,410965.76739999,414555.585900089,452117.280000006,464103.209700086,NA,NA,NA,NA,NA,NA,420062.741900096,457667.661300045,NA,462925.421499997,NA,NA,464398.364600027,3999.65300003532,465223.65030006,3999.67789999209,464915.64510006,233957.212400041,NA,420027.111200034,4727.71290002856,NA,NA,182687.95130006,5,3684.13439998403,5,1,10
100,96,724.735633314898,"l","speed","ba1999wi","1","b","l","0","1","0",84,6,700,"Tue Mar 28 13:13:43 2023",1,"eher leicht","speed","Experiment.osexp","Bild_s3_b_24.png",1080,"wi",1999,"ba","orangene","C:/Users/steff/Documents/Universität/Master Psychologie/SS 2022/Masterarbeit/Experiment/subject-7.csv",0,0,0,"a",35,25,"l","l",664.279399905354,664.279399905354,7,NA,466818.976700073,NA,420062.819899991,457553.697800031,467484.304500045,466510.293700034,67788.914600038,NA,NA,3999.34530002065,NA,452558.383000083,466517.599400016,465943.212600076,NA,466022.174000042,NA,457674.801400048,4744.15070004761,93438.2806000067,107249.208700028,127268.731000018,146611.809000024,174544.586000033,457674.945300096,467484.373000101,NA,459612.257600063,449885.100200074,407261.093200068,410965.76739999,414555.585900089,452117.280000006,465642.6409001,NA,NA,NA,NA,NA,NA,420062.741900096,457667.661300045,NA,466022.096400033,NA,NA,465937.833000091,3999.65300003532,466819.177600089,3999.67789999209,466510.214400012,233957.212400041,NA,420027.111200034,4727.71290002856,NA,NA,182687.95130006,6,4348.41379988939,6,1,10
85.7142857142857,96,707.861314278229,"l","speed","ba1999wi","0","b","l","0","0","0",85,6,700,"Tue Mar 28 13:13:43 2023",1,"eher leicht","speed","Experiment.osexp","Bild_s3_b_4.png",1080,"wi",1999,"ba","orangene","C:/Users/steff/Documents/Universität/Master Psychologie/SS 2022/Masterarbeit/Experiment/subject-7.csv",0,1,0,"a",25,15,"a","a",606.615400058217,606.615400058217,7,NA,468636.689800071,NA,420062.819899991,457553.697800031,469244.146700017,468328.500600066,67788.914600038,NA,NA,3999.34530002065,NA,452558.383000083,468335.516200052,467802.632100065,NA,466022.174000042,NA,457674.801400048,4744.15070004761,93438.2806000067,107249.208700028,127268.731000018,146611.809000024,174544.586000033,457674.945300096,469244.231000077,NA,459612.257600063,449885.100200074,407261.093200068,410965.76739999,414555.585900089,452117.280000006,467502.325700014,NA,NA,NA,NA,NA,NA,420062.741900096,457667.661300045,NA,466022.096400033,NA,NA,467797.279400053,3999.65300003532,468636.791400029,3999.67789999209,468328.425200074,233957.212400041,NA,420027.111200034,4727.71290002856,NA,NA,182687.95130006,6,4955.0291999476,7,1,10
87.5,96,705.652337492211,"l","speed","ba1999wi","1","b","l","0","1","0",86,6,700,"Tue Mar 28 13:13:43 2023",0,"sehr leicht","speed","Experiment.osexp","Bild_s4_b_8.png",1080,"wi",1999,"ba","orangene","C:/Users/steff/Documents/Universität/Master Psychologie/SS 2022/Masterarbeit/Experiment/subject-7.csv",0,0,0,"a",30,20,"l","l",690.189499990083,690.189499990083,7,NA,470425.126800081,NA,420062.819899991,457553.697800031,471116.229200037,470117.343200021,67788.914600038,NA,NA,3999.34530002065,NA,452558.383000083,470123.971700086,469562.24270002,NA,469631.556600099,NA,457674.801400048,4744.15070004761,93438.2806000067,107249.208700028,127268.731000018,146611.809000024,174544.586000033,457674.945300096,471116.296800086,NA,459612.257600063,449885.100200074,407261.093200068,410965.76739999,469261.646600091,452117.280000006,467502.325700014,NA,NA,NA,NA,NA,NA,420062.741900096,457667.661300045,NA,469631.487400038,NA,NA,469556.851500063,3999.65300003532,470425.226600026,3999.67789999209,470117.267000023,233957.212400041,NA,420027.111200034,4727.71290002856,NA,NA,182687.95130006,7,5645.21869993769,8,1,10
77.7777777777778,96,696.99174443829,"l","speed","ba1999wi","0","b","l","0","0","0",87,6,700,"Tue Mar 28 13:13:43 2023",0,"sehr leicht","speed","Experiment.osexp","Bild_s4_b_9.png",1080,"wi",1999,"ba","orangene","C:/Users/steff/Documents/Universität/Master Psychologie/SS 2022/Masterarbeit/Experiment/subject-7.csv",0,1,0,"a",20,10,"a","a",627.707000006922,627.707000006922,7,NA,472279.50840001,NA,420062.819899991,457553.697800031,472908.128500101,471971.672100015,67788.914600038,NA,NA,3999.34530002065,NA,452558.383000083,471978.771400056,471446.455400088,NA,469631.556600099,NA,457674.801400048,4744.15070004761,93438.2806000067,107249.208700028,127268.731000018,146611.809000024,174544.586000033,457674.945300096,472908.237800002,NA,459612.257600063,449885.100200074,407261.093200068,410965.76739999,469261.646600091,452117.280000006,471145.931200008,NA,NA,NA,NA,NA,NA,420062.741900096,457667.661300045,NA,469631.487400038,NA,NA,471441.136800102,3999.65300003532,472279.702200089,3999.67789999209,471971.593800001,233957.212400041,NA,420027.111200034,4727.71290002856,NA,NA,182687.95130006,7,6272.92569994461,9,1,10
80,96,686.480399989523,"l","speed","ba1999wi","1","b","l","0","1","0",88,6,700,"Tue Mar 28 13:13:43 2023",0,"sehr leicht","speed","Experiment.osexp","Bild_s4_b_6.png",1080,"wi",1999,"ba","orangene","C:/Users/steff/Documents/Universität/Master Psychologie/SS 2022/Masterarbeit/Experiment/subject-7.csv",0,0,0,"a",25,15,"l","l",591.878299950622,591.878299950622,7,NA,474091.316000093,NA,420062.819899991,457553.697800031,474684.12780005,473783.520000055,67788.914600038,NA,NA,3999.34530002065,NA,452558.383000083,473790.670200018,473223.008500063,NA,473294.678900042,NA,457674.801400048,4744.15070004761,93438.2806000067,107249.208700028,127268.731000018,146611.809000024,174544.586000033,457674.945300096,474684.19629999,NA,459612.257600063,449885.100200074,407261.093200068,410965.76739999,472922.218700056,452117.280000006,471145.931200008,NA,NA,NA,NA,NA,NA,420062.741900096,457667.661300045,NA,473294.60620007,NA,NA,473217.609100044,3999.65300003532,474091.484900098,3999.67789999209,473783.439200022,233957.212400041,NA,420027.111200034,4727.71290002856,NA,NA,182687.95130006,8,6864.80399989523,10,1,10
