"accuracy","anzahl_gruppen","avg_rt","blauetaste","block","code","correct","correct_colour","correct_response","correct1","correct2","correct3","count_bildstimulus_3_1","count_block","cutoff","datetime","difficulty","difficulty_f","erstebedingung","experiment_file","filename","height","id_geburtsort","id_jahr","id_vater","linketaste","logfile","loose1","loose2","loose3","orangenetaste","punkte1","punkteimblock","response","response_tasteresponse_3_1","response_time","response_time_tasteresponse_3_1","subject_nr","time_bildershuffle","time_bildstimulus_3_1","time_block","time_block_tut","time_blockwerte_zuruecksetzten","time_cutoff_werte_und_punkte_3_1","time_definecorrectcolour_3_1","time_eingabemaske_kuerzel_python","time_ende_tutorial_1","time_ende_experimentierungsphase","time_experiment","time_feedback_serie","time_feedback_tutorial","time_fixationcross_3_1","time_grauesbild_3_1","time_gruppe_block","time_gruppe_tutorial","time_instruktionen_block","time_instruktionen_tutorial_1","time_introduction_1","time_introduction_2_1","time_introduction_3_punkte","time_introduction_3_speed","time_introduction_4_accuracy","time_introduction_5_feedback","time_leertaste_fuer_naechsten_bildschirm","time_logger_3_1","time_loop_block","time_loop_block_tut","time_minifeedbacknegativ_acc","time_minifeedbacknegativ_speed_slow","time_minifeedbacknegativ_speed_slowandwrong","time_minifeedbacknegativ_speed_wrong","time_minifeedbackpositiv_acc","time_minifeedbackpositiv_speed","time_new_inline_script","time_pause_zwischen_serie_1","time_pause_zwischen_serie_2","time_reset_feedback","time_reset_feedback_1","time_sequenz_block","time_sequenz_block_tut","time_sequenz_block_tut_1","time_sequenz_gruppe","time_sequenz_gruppe_tut","time_sequenz_serie","time_serie","time_set_to_zero","time_start","time_tasteresponse_3_1","time_testloopprepareglitchtutorial","time_trial_3_1","time_tutorial","time_tutorial_ende","time_tutorial_wiederholungscheck","time_vorgeplaenkel","time_warnhinweis_3sek","time_warnhinweis_5sek","time_warnung_tutorial_1","total_correct","total_response_time","total_responses","tutorial","tutorialpunkte","geschlecht","alter","studiengang","bildungsabschluss","haendig1","haendig2","haendig3","haendig4","haendig_mean"
100,96,70291.7983110658,"l","accuracy","ut2000we","1","o","a","1","0","0",0,1,700,"Tue Mar 28 14:21:08 2023",3,"sehr schwer","accuracy","Experiment.osexp","Bild_s1_o_18.png",1080,"we",2000,"ut","orangene","C:/Users/steff/Documents/Universität/Master Psychologie/SS 2022/Masterarbeit/Experiment/subject-8.csv",0,0,0,"a",5,5,"a","a",1019.28480004426,1019.28480004426,8,NA,207619.357999996,NA,182383.381299907,NA,208639.390799915,207311.437999946,16143.7195999315,NA,NA,12499.1658999352,NA,NA,207318.760699942,NA,NA,206784.331999952,NA,182476.015199907,13254.8427999718,47911.5084999939,60324.6155999368,78023.608099902,113558.874899987,119907.357899938,182476.120100007,208639.46179999,NA,206783.38649997,NA,NA,NA,NA,NA,NA,NA,NA,NA,NA,NA,NA,182383.198399912,182468.914399971,NA,206784.285399946,NA,NA,NA,12499.2710999213,207619.436699897,12499.2928999709,207311.228099978,182382.400000002,NA,NA,13238.5096999351,NA,NA,130019.079099991,9,632626.184799592,9,1,0,1,23,"Germanistik und Romanistik mit Lehramtsoption",5,3,3,3,3,3
100,96,63330.0628999481,"l","accuracy","ut2000we","1","b","l","1","0","0",1,1,700,"Tue Mar 28 14:21:08 2023",3,"sehr schwer","accuracy","Experiment.osexp","Bild_s1_b_14.png",1080,"we",2000,"ut","orangene","C:/Users/steff/Documents/Universität/Master Psychologie/SS 2022/Masterarbeit/Experiment/subject-8.csv",0,0,0,"a",10,10,"l","l",674.444199888967,674.444199888967,8,NA,209836.113999947,NA,182383.381299907,NA,210511.301599909,209527.632999932,16143.7195999315,NA,NA,12499.1658999352,NA,NA,209534.982999903,209007.680799928,NA,206784.331999952,NA,182476.015199907,13254.8427999718,47911.5084999939,60324.6155999368,78023.608099902,113558.874899987,119907.357899938,182476.120100007,210511.369199958,NA,206783.38649997,NA,NA,NA,NA,208706.679299939,NA,NA,NA,NA,NA,NA,NA,182383.198399912,182468.914399971,NA,206784.285399946,NA,NA,209002.102099941,12499.2710999213,209836.274400004,12499.2928999709,209527.555299923,182382.400000002,NA,NA,13238.5096999351,NA,NA,130019.079099991,10,633300.628999481,10,1,0,1,23,"Germanistik und Romanistik mit Lehramtsoption",5,3,3,3,3,3
100,96,57617.5304454095,"l","accuracy","ut2000we","1","o","a","1","0","0",2,1,700,"Tue Mar 28 14:21:08 2023",2,"eher schwer","accuracy","Experiment.osexp","Bild_s2_o_17.png",1080,"we",2000,"ut","orangene","C:/Users/steff/Documents/Universität/Master Psychologie/SS 2022/Masterarbeit/Experiment/subject-8.csv",0,0,0,"a",15,15,"a","a",492.205900023691,492.205900023691,8,NA,211714.430099935,NA,182383.381299907,NA,212207.315399894,211406.716899946,16143.7195999315,NA,NA,12499.1658999352,NA,NA,211414.051199914,210841.107999906,NA,210913.396699936,NA,182476.015199907,13254.8427999718,47911.5084999939,60324.6155999368,78023.608099902,113558.874899987,119907.357899938,182476.120100007,212207.383899949,NA,206783.38649997,NA,NA,NA,NA,210540.387099958,NA,NA,NA,NA,NA,NA,NA,182383.198399912,182468.914399971,NA,210913.322799955,NA,NA,210835.666599916,12499.2710999213,211714.511199971,12499.2928999709,211406.635499909,182382.400000002,NA,NA,13238.5096999351,NA,NA,130019.079099991,11,633792.834899505,11,1,0,1,23,"Germanistik und Romanistik mit Lehramtsoption",5,3,3,3,3,3
100,96,52864.4087166273,"l","accuracy","ut2000we","1","o","a","1","0","0",3,1,700,"Tue Mar 28 14:21:08 2023",2,"eher schwer","accuracy","Experiment.osexp","Bild_s2_o_3.png",1080,"we",2000,"ut","orangene","C:/Users/steff/Documents/Universität/Master Psychologie/SS 2022/Masterarbeit/Experiment/subject-8.csv",0,0,0,"a",20,20,"a","a",580.069700023159,580.069700023159,8,NA,213370.548999985,NA,182383.381299907,NA,213951.323599904,213062.5611,16143.7195999315,NA,NA,12499.1658999352,NA,NA,213069.520099903,212534.603899927,NA,210913.396699936,NA,182476.015199907,13254.8427999718,47911.5084999939,60324.6155999368,78023.608099902,113558.874899987,119907.357899938,182476.120100007,213951.391799957,NA,206783.38649997,NA,NA,NA,NA,212234.023700003,NA,NA,NA,NA,NA,NA,NA,182383.198399912,182468.914399971,NA,210913.322799955,NA,NA,212529.252999928,12499.2710999213,213370.637999964,12499.2928999709,213062.483999995,182382.400000002,NA,NA,13238.5096999351,NA,NA,130019.079099991,12,634372.904599528,12,1,0,1,23,"Germanistik und Romanistik mit Lehramtsoption",5,3,3,3,3,3
100,96,48829.4791768914,"l","accuracy","ut2000we","1","o","a","1","0","0",4,1,700,"Tue Mar 28 14:21:08 2023",1,"eher leicht","accuracy","Experiment.osexp","Bild_s3_o_11.png",1080,"we",2000,"ut","orangene","C:/Users/steff/Documents/Universität/Master Psychologie/SS 2022/Masterarbeit/Experiment/subject-8.csv",0,0,0,"a",25,25,"a","a",410.324700060301,410.324700060301,8,NA,215140.196399996,NA,182383.381299907,NA,215551.127999905,214832.187599968,16143.7195999315,NA,NA,12499.1658999352,NA,NA,214839.267099975,214267.789299949,NA,214336.857099901,NA,182476.015199907,13254.8427999718,47911.5084999939,60324.6155999368,78023.608099902,113558.874899987,119907.357899938,182476.120100007,215551.19509995,NA,206783.38649997,NA,NA,NA,NA,213967.157999985,NA,NA,NA,NA,NA,NA,NA,182383.198399912,182468.914399971,NA,214336.786999949,NA,NA,214262.529899948,12499.2710999213,215140.385999926,12499.2928999709,214832.108599949,182382.400000002,NA,NA,13238.5096999351,NA,NA,130019.079099991,13,634783.229299588,13,1,0,1,23,"Germanistik und Romanistik mit Lehramtsoption",5,3,3,3,3,3
100,96,45601.0542356858,"l","accuracy","ut2000we","1","o","a","1","0","0",5,1,700,"Tue Mar 28 14:21:08 2023",1,"eher leicht","accuracy","Experiment.osexp","Bild_s3_o_2.png",1080,"we",2000,"ut","orangene","C:/Users/steff/Documents/Universität/Master Psychologie/SS 2022/Masterarbeit/Experiment/subject-8.csv",0,0,0,"a",30,30,"a","a",3631.5300000133,3631.5300000133,8,NA,216703.093699994,NA,182383.381299907,NA,220335.204300005,216395.255499985,16143.7195999315,NA,NA,12499.1658999352,NA,NA,216402.564699994,215867.594199954,NA,214336.857099901,NA,182476.015199907,13254.8427999718,47911.5084999939,60324.6155999368,78023.608099902,113558.874899987,119907.357899938,182476.120100007,220335.276999976,NA,206783.38649997,NA,NA,NA,NA,215566.767999902,NA,NA,NA,NA,NA,NA,NA,182383.198399912,182468.914399971,NA,214336.786999949,NA,NA,215862.231899984,12499.2710999213,216703.184499987,12499.2928999709,216395.176699967,182382.400000002,NA,NA,13238.5096999351,NA,NA,130019.079099991,14,638414.759299601,14,1,0,1,23,"Germanistik und Romanistik mit Lehramtsoption",5,3,3,3,3,3
100,96,42601.5288866358,"l","accuracy","ut2000we","1","b","l","1","0","0",6,1,700,"Tue Mar 28 14:21:08 2023",0,"sehr leicht","accuracy","Experiment.osexp","Bild_s4_b_13.png",1080,"we",2000,"ut","orangene","C:/Users/steff/Documents/Universität/Master Psychologie/SS 2022/Masterarbeit/Experiment/subject-8.csv",0,0,0,"a",35,35,"l","l",608.173999935389,608.173999935389,8,NA,222510.431499919,NA,182383.381299907,NA,223119.127599988,222202.632799977,16143.7195999315,NA,NA,12499.1658999352,NA,NA,222209.319699905,221659.963999991,NA,221734.429099946,NA,182476.015199907,13254.8427999718,47911.5084999939,60324.6155999368,78023.608099902,113558.874899987,119907.357899938,182476.120100007,223119.19379991,NA,206783.38649997,NA,NA,NA,NA,220358.063399908,NA,NA,NA,NA,NA,NA,NA,182383.198399912,182468.914399971,NA,221734.353599953,NA,NA,221654.511299916,12499.2710999213,222510.528399958,12499.2928999709,222202.546599903,182382.400000002,NA,NA,13238.5096999351,220659.171599895,NA,130019.079099991,15,639022.933299537,15,1,0,1,23,"Germanistik und Romanistik mit Lehramtsoption",5,3,3,3,3,3
100,96,39973.8460749722,"l","accuracy","ut2000we","1","b","l","1","0","0",7,1,700,"Tue Mar 28 14:21:08 2023",0,"sehr leicht","accuracy","Experiment.osexp","Bild_s4_b_7.png",1080,"we",2000,"ut","orangene","C:/Users/steff/Documents/Universität/Master Psychologie/SS 2022/Masterarbeit/Experiment/subject-8.csv",0,0,0,"a",40,40,"l","l",558.603900019079,558.603900019079,8,NA,224272.012599977,NA,182383.381299907,NA,224831.375299953,223963.324599899,16143.7195999315,NA,NA,12499.1658999352,NA,NA,223970.571299898,223441.10159995,NA,221734.429099946,NA,182476.015199907,13254.8427999718,47911.5084999939,60324.6155999368,78023.608099902,113558.874899987,119907.357899938,182476.120100007,224831.446199911,NA,206783.38649997,NA,NA,NA,NA,223140.352499904,NA,NA,NA,NA,NA,NA,NA,182383.198399912,182468.914399971,NA,221734.353599953,NA,NA,223435.634599999,12499.2710999213,224272.099099937,12499.2928999709,223963.2482999,182382.400000002,NA,NA,13238.5096999351,220659.171599895,NA,130019.079099991,16,639581.537199556,16,1,0,1,23,"Germanistik und Romanistik mit Lehramtsoption",5,3,3,3,3,3
100,96,37656.2989529167,"l","accuracy","ut2000we","1","o","a","1","0","0",8,1,700,"Tue Mar 28 14:21:08 2023",0,"sehr leicht","accuracy","Experiment.osexp","Bild_s4_o_17.png",1080,"we",2000,"ut","orangene","C:/Users/steff/Documents/Universität/Master Psychologie/SS 2022/Masterarbeit/Experiment/subject-8.csv",0,0,0,"a",45,45,"a","a",575.545000028796,575.545000028796,8,NA,226015.035099932,NA,182383.381299907,NA,226591.415799921,225706.941599958,16143.7195999315,NA,NA,12499.1658999352,NA,NA,225714.245699928,225147.759199957,NA,225221.123499912,NA,182476.015199907,13254.8427999718,47911.5084999939,60324.6155999368,78023.608099902,113558.874899987,119907.357899938,182476.120100007,226591.482099961,NA,206783.38649997,NA,NA,NA,NA,224846.944799996,NA,NA,NA,NA,NA,NA,NA,182383.198399912,182468.914399971,NA,225221.049099928,NA,NA,225142.229199992,12499.2710999213,226015.147999977,12499.2928999709,225706.864499953,182382.400000002,NA,NA,13238.5096999351,220659.171599895,NA,130019.079099991,17,640157.082199585,17,1,0,1,23,"Germanistik und Romanistik mit Lehramtsoption",5,3,3,3,3,3
100,96,35590.0868777535,"l","accuracy","ut2000we","1","b","l","1","0","0",9,1,700,"Tue Mar 28 14:21:08 2023",0,"sehr leicht","accuracy","Experiment.osexp","Bild_s4_b_12.png",1080,"we",2000,"ut","orangene","C:/Users/steff/Documents/Universität/Master Psychologie/SS 2022/Masterarbeit/Experiment/subject-8.csv",0,0,0,"a",50,50,"l","l",464.481599978171,464.481599978171,8,NA,227758.12569994,NA,182383.381299907,NA,228223.330099951,227449.616299942,16143.7195999315,NA,NA,12499.1658999352,NA,NA,227456.523199915,226921.906400006,NA,225221.123499912,NA,182476.015199907,13254.8427999718,47911.5084999939,60324.6155999368,78023.608099902,113558.874899987,119907.357899938,182476.120100007,228223.401699914,NA,206783.38649997,NA,NA,NA,NA,226621.38139992,NA,NA,NA,NA,NA,NA,NA,182383.198399912,182468.914399971,NA,225221.049099928,NA,NA,226916.475199978,12499.2710999213,227758.215199923,12499.2928999709,227449.53819993,182382.400000002,NA,NA,13238.5096999351,220659.171599895,NA,130019.079099991,18,640621.563799563,18,1,0,1,23,"Germanistik und Romanistik mit Lehramtsoption",5,3,3,3,3,3
100,96,33743.7233368217,"l","accuracy","ut2000we","1","o","a","1","0","0",10,1,700,"Tue Mar 28 14:21:08 2023",1,"eher leicht","accuracy","Experiment.osexp","Bild_s3_o_21.png",1080,"we",2000,"ut","orangene","C:/Users/steff/Documents/Universität/Master Psychologie/SS 2022/Masterarbeit/Experiment/subject-8.csv",0,0,0,"a",55,55,"a","a",509.17960004881,509.17960004881,8,NA,229425.347899902,NA,182383.381299907,NA,229935.316299903,229117.476399988,16143.7195999315,NA,NA,12499.1658999352,NA,NA,229124.737299979,228554.960599984,NA,228626.560799894,NA,182476.015199907,13254.8427999718,47911.5084999939,60324.6155999368,78023.608099902,113558.874899987,119907.357899938,182476.120100007,229935.385999968,NA,206783.38649997,NA,NA,NA,NA,228253.967899946,NA,NA,NA,NA,NA,NA,NA,182383.198399912,182468.914399971,NA,228626.488999929,NA,NA,228549.572999938,12499.2710999213,229425.515999901,12499.2928999709,229117.395499954,182382.400000002,NA,NA,13238.5096999351,220659.171599895,NA,130019.079099991,19,641130.743399612,19,1,0,1,23,"Germanistik und Romanistik mit Lehramtsoption",5,3,3,3,3,3
95,96,32094.1764099814,"l","accuracy","ut2000we","0","o","a","0","0","0",11,1,700,"Tue Mar 28 14:21:08 2023",1,"eher leicht","accuracy","Experiment.osexp","Bild_s3_o_15.png",1080,"we",2000,"ut","orangene","C:/Users/steff/Documents/Universität/Master Psychologie/SS 2022/Masterarbeit/Experiment/subject-8.csv",1,0,0,"a",45,45,"l","l",752.784800017253,752.784800017253,8,NA,231101.783099934,NA,182383.381299907,NA,231855.145399924,230793.006899999,16143.7195999315,NA,NA,12499.1658999352,NA,NA,230800.804500002,230257.508399896,NA,228626.560799894,NA,182476.015199907,13254.8427999718,47911.5084999939,60324.6155999368,78023.608099902,113558.874899987,119907.357899938,182476.120100007,231855.215499992,NA,206783.38649997,NA,NA,NA,NA,229957.006099983,NA,NA,NA,NA,NA,NA,NA,182383.198399912,182468.914399971,NA,228626.488999929,NA,NA,230252.168099978,12499.2710999213,231101.873799926,12499.2928999709,230792.921799934,182382.400000002,NA,NA,13238.5096999351,220659.171599895,NA,130019.079099991,19,641883.528199629,20,1,0,1,23,"Germanistik und Romanistik mit Lehramtsoption",5,3,3,3,3,3
95.2380952380952,96,30596.7482142649,"l","accuracy","ut2000we","1","b","l","1","0","0",12,1,700,"Tue Mar 28 14:21:08 2023",2,"eher schwer","accuracy","Experiment.osexp","Bild_s2_b_3.png",1080,"we",2000,"ut","orangene","C:/Users/steff/Documents/Universität/Master Psychologie/SS 2022/Masterarbeit/Experiment/subject-8.csv",0,0,0,"a",50,50,"l","l",648.184299934655,648.184299934655,8,NA,233046.320899972,NA,182383.381299907,NA,233695.490799961,232737.357599894,16143.7195999315,NA,NA,12499.1658999352,NA,NA,232744.768299977,232170.505499933,NA,232240.119199967,NA,182476.015199907,13254.8427999718,47911.5084999939,60324.6155999368,78023.608099902,113558.874899987,119907.357899938,182476.120100007,233695.561099914,NA,206783.38649997,231869.681999902,NA,NA,NA,229957.006099983,NA,NA,NA,NA,NA,NA,NA,182383.198399912,182468.914399971,NA,232240.048899897,NA,NA,232165.176799987,12499.2710999213,233046.506999992,12499.2928999709,232737.227599951,182382.400000002,NA,NA,13238.5096999351,220659.171599895,NA,130019.079099991,20,642531.712499564,21,1,0,1,23,"Germanistik und Romanistik mit Lehramtsoption",5,3,3,3,3,3
95.4545454545454,96,29239.2342727081,"l","accuracy","ut2000we","1","o","a","1","0","0",13,1,700,"Tue Mar 28 14:21:08 2023",2,"eher schwer","accuracy","Experiment.osexp","Bild_s2_o_15.png",1080,"we",2000,"ut","orangene","C:/Users/steff/Documents/Universität/Master Psychologie/SS 2022/Masterarbeit/Experiment/subject-8.csv",0,0,0,"a",55,55,"a","a",731.441500014625,731.441500014625,8,NA,234851.12779995,NA,182383.381299907,NA,235583.417299902,234543.381199939,16143.7195999315,NA,NA,12499.1658999352,NA,NA,234550.408699899,234010.138999904,NA,232240.119199967,NA,182476.015199907,13254.8427999718,47911.5084999939,60324.6155999368,78023.608099902,113558.874899987,119907.357899938,182476.120100007,235583.491800004,NA,206783.38649997,231869.681999902,NA,NA,NA,233709.324099938,NA,NA,NA,NA,NA,NA,NA,182383.198399912,182468.914399971,NA,232240.048899897,NA,NA,234004.753999994,12499.2710999213,234851.217199932,12499.2928999709,234543.299999903,182382.400000002,NA,NA,13238.5096999351,220659.171599895,NA,130019.079099991,21,643263.153999578,22,1,0,1,23,"Germanistik und Romanistik mit Lehramtsoption",5,3,3,3,3,3
91.304347826087,96,28007.2829130247,"l","accuracy","ut2000we","0","o","a","0","0","0",14,1,700,"Tue Mar 28 14:21:08 2023",3,"sehr schwer","accuracy","Experiment.osexp","Bild_s1_o_25.png",1080,"we",2000,"ut","orangene","C:/Users/steff/Documents/Universität/Master Psychologie/SS 2022/Masterarbeit/Experiment/subject-8.csv",1,0,0,"a",45,45,"l","l",904.352999990806,904.352999990806,8,NA,236790.213799919,NA,182383.381299907,NA,237695.436499896,236481.690499932,16143.7195999315,NA,NA,12499.1658999352,NA,NA,236489.132099901,235908.640999929,NA,235985.576999956,NA,182476.015199907,13254.8427999718,47911.5084999939,60324.6155999368,78023.608099902,113558.874899987,119907.357899938,182476.120100007,237695.506199962,NA,206783.38649997,231869.681999902,NA,NA,NA,235607.809099951,NA,NA,NA,NA,NA,NA,NA,182383.198399912,182468.914399971,NA,235985.500999959,NA,NA,235903.238600004,12499.2710999213,236790.307299932,12499.2928999709,236481.611499912,182382.400000002,NA,NA,13238.5096999351,220659.171599895,NA,130019.079099991,21,644167.506999569,23,1,0,1,23,"Germanistik und Romanistik mit Lehramtsoption",5,3,3,3,3,3
91.6666666666667,96,26910.2783791459,"l","accuracy","ut2000we","1","b","l","1","0","0",15,1,700,"Tue Mar 28 14:21:08 2023",3,"sehr schwer","accuracy","Experiment.osexp","Bild_s1_b_5.png",1080,"we",2000,"ut","orangene","C:/Users/steff/Documents/Universität/Master Psychologie/SS 2022/Masterarbeit/Experiment/subject-8.csv",0,0,0,"a",50,50,"l","l",1679.17409993242,1679.17409993242,8,NA,238863.437999971,NA,182383.381299907,NA,240543.532699929,238554.512099945,16143.7195999315,NA,NA,12499.1658999352,NA,NA,238561.838199967,238019.616799895,NA,235985.576999956,NA,182476.015199907,13254.8427999718,47911.5084999939,60324.6155999368,78023.608099902,113558.874899987,119907.357899938,182476.120100007,240543.612399953,NA,206783.38649997,237718.7653,NA,NA,NA,235607.809099951,NA,NA,NA,NA,NA,NA,NA,182383.198399912,182468.914399971,NA,235985.500999959,NA,NA,238014.204199892,12499.2710999213,238863.528599963,12499.2928999709,238554.427800002,182382.400000002,NA,NA,13238.5096999351,220659.171599895,NA,130019.079099991,22,645846.681099501,24,1,0,1,23,"Germanistik und Romanistik mit Lehramtsoption",5,3,3,3,3,3
50,96,1633.5786000127,"l","speed","ut2000we","0","b","l","0","0","0",16,2,700,"Tue Mar 28 14:21:08 2023",3,"sehr schwer","accuracy","Experiment.osexp","Bild_s1_b_8.png",1080,"we",2000,"ut","orangene","C:/Users/steff/Documents/Universität/Master Psychologie/SS 2022/Masterarbeit/Experiment/subject-8.csv",0,0,1,"a",40,-10,"a","a",821.72519993037,821.72519993037,8,NA,249368.798999931,NA,182383.381299907,246004.572699894,250191.167699988,249060.807999922,16143.7195999315,NA,NA,12499.1658999352,NA,241008.657799917,249068.041699938,240869.1159999,NA,248576.267899945,NA,246129.113699892,13254.8427999718,47911.5084999939,60324.6155999368,78023.608099902,113558.874899987,119907.357899938,246129.253999912,250191.265099915,NA,248575.354499975,237718.7653,NA,NA,NA,240568.23059998,NA,NA,NA,NA,NA,NA,NA,182383.198399912,246121.950799949,NA,248576.227499987,NA,NA,240863.701199996,12499.2710999213,249368.958199979,12499.2928999709,249060.608099913,182382.400000002,NA,NA,13238.5096999351,220659.171599895,NA,130019.079099991,1,3267.15720002539,2,1,50,1,23,"Germanistik und Romanistik mit Lehramtsoption",5,3,3,3,3,3
33.3333333333333,96,1319.91723331157,"l","speed","ut2000we","0","o","a","0","0","0",17,2,700,"Tue Mar 28 14:21:08 2023",3,"sehr schwer","accuracy","Experiment.osexp","Bild_s1_o_7.png",1080,"we",2000,"ut","orangene","C:/Users/steff/Documents/Universität/Master Psychologie/SS 2022/Masterarbeit/Experiment/subject-8.csv",0,1,0,"a",30,-20,"l","l",692.594499909319,692.594499909319,8,NA,251337.929599918,NA,182383.381299907,246004.572699894,252031.110499986,251030.418699956,16143.7195999315,NA,NA,12499.1658999352,NA,241008.657799917,251037.577999989,250509.091399959,NA,248576.267899945,NA,246129.113699892,13254.8427999718,47911.5084999939,60324.6155999368,78023.608099902,113558.874899987,119907.357899938,246129.253999912,252031.199799967,NA,248575.354499975,237718.7653,NA,250208.5372,NA,240568.23059998,NA,NA,NA,NA,NA,NA,NA,182383.198399912,246121.950799949,NA,248576.227499987,NA,NA,250503.648999962,12499.2710999213,251338.090999983,12499.2928999709,251030.342499958,182382.400000002,NA,NA,13238.5096999351,220659.171599895,NA,130019.079099991,1,3959.75169993471,3,1,50,1,23,"Germanistik und Romanistik mit Lehramtsoption",5,3,3,3,3,3
50,96,1193.63442499889,"l","speed","ut2000we","1","b","l","0","0","1",18,2,700,"Tue Mar 28 14:21:08 2023",2,"eher schwer","accuracy","Experiment.osexp","Bild_s2_b_13.png",1080,"we",2000,"ut","orangene","C:/Users/steff/Documents/Universität/Master Psychologie/SS 2022/Masterarbeit/Experiment/subject-8.csv",0,0,0,"a",20,-30,"l","l",814.786000060849,814.786000060849,8,NA,253199.773799977,NA,182383.381299907,246004.572699894,254015.442400007,252892.0468,16143.7195999315,NA,NA,12499.1658999352,NA,241008.657799917,252898.723099963,252345.191599918,NA,252423.78349998,NA,246129.113699892,13254.8427999718,47911.5084999939,60324.6155999368,78023.608099902,113558.874899987,119907.357899938,246129.253999912,254015.528199961,NA,248575.354499975,237718.7653,NA,250208.5372,252044.932399993,240568.23059998,NA,NA,NA,NA,NA,NA,NA,182383.198399912,246121.950799949,NA,252423.709099996,NA,NA,252339.803299983,12499.2710999213,253199.902699911,12499.2928999709,252891.918199952,182382.400000002,NA,NA,13238.5096999351,220659.171599895,NA,130019.079099991,2,4774.53769999556,4,1,50,1,23,"Germanistik und Romanistik mit Lehramtsoption",5,3,3,3,3,3
40,96,1043.18062001839,"l","speed","ut2000we","0","o","a","0","0","0",19,2,700,"Tue Mar 28 14:21:08 2023",2,"eher schwer","accuracy","Experiment.osexp","Bild_s2_o_18.png",1080,"we",2000,"ut","orangene","C:/Users/steff/Documents/Universität/Master Psychologie/SS 2022/Masterarbeit/Experiment/subject-8.csv",0,1,0,"a",10,-40,"l","l",441.365400096402,441.365400096402,8,NA,255157.098999945,NA,182383.381299907,246004.572699894,255599.406900001,254849.294099957,16143.7195999315,NA,NA,12499.1658999352,NA,241008.657799917,254856.396299903,254329.841299914,NA,252423.78349998,NA,246129.113699892,13254.8427999718,47911.5084999939,60324.6155999368,78023.608099902,113558.874899987,119907.357899938,246129.253999912,255599.495099974,NA,248575.354499975,237718.7653,254029.1402,250208.5372,252044.932399993,240568.23059998,NA,NA,NA,NA,NA,NA,NA,182383.198399912,246121.950799949,NA,252423.709099996,NA,NA,254324.451399967,12499.2710999213,255157.305999892,12499.2928999709,254849.213899928,182382.400000002,NA,NA,13238.5096999351,220659.171599895,NA,130019.079099991,2,5215.90310009196,5,1,50,1,23,"Germanistik und Romanistik mit Lehramtsoption",5,3,3,3,3,3
50,96,937.760916674354,"l","speed","ut2000we","1","b","l","0","1","0",20,2,700,"Tue Mar 28 14:21:08 2023",1,"eher leicht","accuracy","Experiment.osexp","Bild_s3_b_6.png",1080,"we",2000,"ut","orangene","C:/Users/steff/Documents/Universität/Master Psychologie/SS 2022/Masterarbeit/Experiment/subject-8.csv",0,0,0,"a",15,-35,"l","l",410.662399954163,410.662399954163,8,NA,256787.839800003,NA,182383.381299907,246004.572699894,257199.235399952,256480.063299998,16143.7195999315,NA,NA,12499.1658999352,NA,241008.657799917,256487.110199989,255925.350499921,NA,255995.139299892,NA,246129.113699892,13254.8427999718,47911.5084999939,60324.6155999368,78023.608099902,113558.874899987,119907.357899938,246129.253999912,257199.304399895,NA,248575.354499975,237718.7653,254029.1402,250208.5372,255624.79069992,240568.23059998,NA,NA,NA,NA,NA,NA,NA,182383.198399912,246121.950799949,NA,255995.062500006,NA,NA,255919.946199981,12499.2710999213,256788.008600008,12499.2928999709,256479.986499995,182382.400000002,NA,NA,13238.5096999351,220659.171599895,NA,130019.079099991,3,5626.56550004613,6,1,50,1,23,"Germanistik und Romanistik mit Lehramtsoption",5,3,3,3,3,3
57.1428571428571,96,861.569985714076,"l","speed","ut2000we","1","b","l","0","1","0",21,2,700,"Tue Mar 28 14:21:08 2023",1,"eher leicht","accuracy","Experiment.osexp","Bild_s3_b_21.png",1080,"we",2000,"ut","orangene","C:/Users/steff/Documents/Universität/Master Psychologie/SS 2022/Masterarbeit/Experiment/subject-8.csv",0,0,0,"a",20,-30,"l","l",404.424399952404,404.424399952404,8,NA,258346.021299949,NA,182383.381299907,246004.572699894,258751.294699963,258037.687500007,16143.7195999315,NA,NA,12499.1658999352,NA,241008.657799917,258044.988699956,257514.576399932,NA,255995.139299892,NA,246129.113699892,13254.8427999718,47911.5084999939,60324.6155999368,78023.608099902,113558.874899987,119907.357899938,246129.253999912,258751.364599913,NA,248575.354499975,237718.7653,254029.1402,250208.5372,255624.79069992,240568.23059998,257213.664099923,NA,NA,NA,NA,NA,NA,182383.198399912,246121.950799949,NA,255995.062500006,NA,NA,257509.099499905,12499.2710999213,258346.208699979,12499.2928999709,258037.605099962,182382.400000002,NA,NA,13238.5096999351,220659.171599895,NA,130019.079099991,4,6030.98989999853,7,1,50,1,23,"Germanistik und Romanistik mit Lehramtsoption",5,3,3,3,3,3
62.5,96,800.007662488497,"l","speed","ut2000we","1","b","l","0","1","0",22,2,700,"Tue Mar 28 14:21:08 2023",0,"sehr leicht","accuracy","Experiment.osexp","Bild_s4_b_15.png",1080,"we",2000,"ut","orangene","C:/Users/steff/Documents/Universität/Master Psychologie/SS 2022/Masterarbeit/Experiment/subject-8.csv",0,0,0,"a",25,-25,"l","l",369.071399909444,369.071399909444,8,NA,259933.472299948,NA,182383.381299907,246004.572699894,260303.23109997,259625.379299978,16143.7195999315,NA,NA,12499.1658999352,NA,241008.657799917,259632.213699981,259064.518300002,NA,259136.8508999,NA,246129.113699892,13254.8427999718,47911.5084999939,60324.6155999368,78023.608099902,113558.874899987,119907.357899938,246129.253999912,260303.301899927,NA,248575.354499975,237718.7653,254029.1402,250208.5372,255624.79069992,240568.23059998,258762.765599997,NA,NA,NA,NA,NA,NA,182383.198399912,246121.950799949,NA,259136.774599901,NA,NA,259059.108299902,12499.2710999213,259933.586200001,12499.2928999709,259625.302899978,182382.400000002,NA,NA,13238.5096999351,220659.171599895,NA,130019.079099991,5,6400.06129990797,8,1,50,1,23,"Germanistik und Romanistik mit Lehramtsoption",5,3,3,3,3,3
55.5555555555556,96,762.262855552965,"l","speed","ut2000we","0","b","l","0","0","0",23,2,700,"Tue Mar 28 14:21:08 2023",0,"sehr leicht","accuracy","Experiment.osexp","Bild_s4_b_6.png",1080,"we",2000,"ut","orangene","C:/Users/steff/Documents/Universität/Master Psychologie/SS 2022/Masterarbeit/Experiment/subject-8.csv",0,1,0,"a",15,-35,"a","a",460.304400068708,460.304400068708,8,NA,261458.184499992,NA,182383.381299907,246004.572699894,261919.177099946,261150.240999996,16143.7195999315,NA,NA,12499.1658999352,NA,241008.657799917,261157.386299921,260624.060699949,NA,259136.8508999,NA,246129.113699892,13254.8427999718,47911.5084999939,60324.6155999368,78023.608099902,113558.874899987,119907.357899938,246129.253999912,261919.268499943,NA,248575.354499975,237718.7653,254029.1402,250208.5372,255624.79069992,240568.23059998,260323.407699936,NA,NA,NA,NA,NA,NA,182383.198399912,246121.950799949,NA,259136.774599901,NA,NA,260618.72119992,12499.2710999213,261458.358199918,12499.2928999709,261150.161099969,182382.400000002,NA,NA,13238.5096999351,220659.171599895,NA,130019.079099991,5,6860.36569997668,9,1,50,1,23,"Germanistik und Romanistik mit Lehramtsoption",5,3,3,3,3,3
60,96,730.599459994119,"l","speed","ut2000we","1","b","l","0","1","0",24,2,700,"Tue Mar 28 14:21:08 2023",0,"sehr leicht","accuracy","Experiment.osexp","Bild_s4_b_1.png",1080,"we",2000,"ut","orangene","C:/Users/steff/Documents/Universität/Master Psychologie/SS 2022/Masterarbeit/Experiment/subject-8.csv",0,0,0,"a",20,-30,"l","l",445.628899964504,445.628899964504,8,NA,263120.847499929,NA,182383.381299907,246004.572699894,263567.089199903,262812.922499957,16143.7195999315,NA,NA,12499.1658999352,NA,241008.657799917,262820.088299923,262245.623299968,NA,262319.190999959,NA,246129.113699892,13254.8427999718,47911.5084999939,60324.6155999368,78023.608099902,113558.874899987,119907.357899938,246129.253999912,263567.160699982,NA,248575.354499975,237718.7653,254029.1402,250208.5372,261944.954099949,240568.23059998,260323.407699936,NA,NA,NA,NA,NA,NA,182383.198399912,246121.950799949,NA,262319.109099917,NA,NA,262240.257099969,12499.2710999213,263121.036399971,12499.2928999709,262812.761099893,182382.400000002,NA,NA,13238.5096999351,220659.171599895,NA,130019.079099991,6,7305.99459994119,10,1,50,1,23,"Germanistik und Romanistik mit Lehramtsoption",5,3,3,3,3,3
54.5454545454545,96,739.274427273565,"l","speed","ut2000we","0","b","l","0","0","0",25,2,700,"Tue Mar 28 14:21:08 2023",0,"sehr leicht","accuracy","Experiment.osexp","Bild_s4_b_4.png",1080,"we",2000,"ut","orangene","C:/Users/steff/Documents/Universität/Master Psychologie/SS 2022/Masterarbeit/Experiment/subject-8.csv",0,0,1,"a",10,-40,"a","a",826.024100068025,826.024100068025,8,NA,264724.519999931,NA,182383.381299907,246004.572699894,265551.258299965,264416.395899956,16143.7195999315,NA,NA,12499.1658999352,NA,241008.657799917,264423.269899911,263897.511799936,NA,262319.190999959,NA,246129.113699892,13254.8427999718,47911.5084999939,60324.6155999368,78023.608099902,113558.874899987,119907.357899938,246129.253999912,265551.346799941,NA,248575.354499975,237718.7653,254029.1402,250208.5372,261944.954099949,240568.23059998,263596.755799954,NA,NA,NA,NA,NA,NA,182383.198399912,246121.950799949,NA,262319.109099917,NA,NA,263892.147699953,12499.2710999213,264724.640499917,12499.2928999709,264416.323299985,182382.400000002,NA,NA,13238.5096999351,220659.171599895,NA,130019.079099991,6,8132.01870000921,11,1,50,1,23,"Germanistik und Romanistik mit Lehramtsoption",5,3,3,3,3,3
50,96,712.101425005433,"l","speed","ut2000we","0","o","a","0","0","0",26,2,700,"Tue Mar 28 14:21:08 2023",1,"eher leicht","accuracy","Experiment.osexp","Bild_s3_o_1.png",1080,"we",2000,"ut","orangene","C:/Users/steff/Documents/Universität/Master Psychologie/SS 2022/Masterarbeit/Experiment/subject-8.csv",0,1,0,"a",0,-50,"l","l",413.19840005599,413.19840005599,8,NA,266737.261399976,NA,182383.381299907,246004.572699894,267151.39949997,266429.281499935,16143.7195999315,NA,NA,12499.1658999352,NA,241008.657799917,266436.514199944,265872.460699989,NA,265942.814199952,NA,246129.113699892,13254.8427999718,47911.5084999939,60324.6155999368,78023.608099902,113558.874899987,119907.357899938,246129.253999912,267151.489399956,NA,248575.354499975,237718.7653,254029.1402,265571.8719,261944.954099949,240568.23059998,263596.755799954,NA,NA,NA,NA,NA,NA,182383.198399912,246121.950799949,NA,265942.742199986,NA,NA,265867.113399901,12499.2710999213,266737.453199923,12499.2928999709,266429.203499923,182382.400000002,NA,NA,13238.5096999351,220659.171599895,NA,130019.079099991,6,8545.2171000652,12,1,50,1,23,"Germanistik und Romanistik mit Lehramtsoption",5,3,3,3,3,3
53.8461538461538,96,720.108076930046,"l","speed","ut2000we","1","o","a","0","0","1",27,2,700,"Tue Mar 28 14:21:08 2023",1,"eher leicht","accuracy","Experiment.osexp","Bild_s3_o_6.png",1080,"we",2000,"ut","orangene","C:/Users/steff/Documents/Universität/Master Psychologie/SS 2022/Masterarbeit/Experiment/subject-8.csv",0,0,0,"a",-10,-60,"a","a",816.187900025398,816.187900025398,8,NA,268318.377899937,NA,182383.381299907,246004.572699894,269135.333899991,268010.549900006,16143.7195999315,NA,NA,12499.1658999352,NA,241008.657799917,268017.842400004,267480.970299919,NA,265942.814199952,NA,246129.113699892,13254.8427999718,47911.5084999939,60324.6155999368,78023.608099902,113558.874899987,119907.357899938,246129.253999912,269135.431899922,NA,248575.354499975,237718.7653,254029.1402,265571.8719,267179.985599942,240568.23059998,263596.755799954,NA,NA,NA,NA,NA,NA,182383.198399912,246121.950799949,NA,265942.742199986,NA,NA,267475.617699907,12499.2710999213,268318.455199944,12499.2928999709,268010.468499968,182382.400000002,NA,NA,13238.5096999351,220659.171599895,NA,130019.079099991,7,9361.4050000906,13,1,50,1,23,"Germanistik und Romanistik mit Lehramtsoption",5,3,3,3,3,3
57.1428571428571,96,705.716164292036,"l","speed","ut2000we","1","b","l","0","1","0",28,2,700,"Tue Mar 28 14:21:08 2023",2,"eher schwer","accuracy","Experiment.osexp","Bild_s2_b_20.png",1080,"we",2000,"ut","orangene","C:/Users/steff/Documents/Universität/Master Psychologie/SS 2022/Masterarbeit/Experiment/subject-8.csv",0,0,0,"a",-5,-55,"l","l",518.621299997903,518.621299997903,8,NA,270327.9568,NA,182383.381299907,246004.572699894,270847.385099973,270020.321799908,16143.7195999315,NA,NA,12499.1658999352,NA,241008.657799917,270027.293799911,269446.570799919,NA,269519.470199943,NA,246129.113699892,13254.8427999718,47911.5084999939,60324.6155999368,78023.608099902,113558.874899987,119907.357899938,246129.253999912,270847.459999961,NA,248575.354499975,237718.7653,269146.037300001,265571.8719,267179.985599942,240568.23059998,263596.755799954,NA,NA,NA,NA,NA,NA,182383.198399912,246121.950799949,NA,269519.400499994,NA,NA,269441.134199966,12499.2710999213,270328.040599939,12499.2928999709,270020.241399994,182382.400000002,NA,NA,13238.5096999351,220659.171599895,NA,130019.079099991,8,9880.0263000885,14,1,50,1,23,"Germanistik und Romanistik mit Lehramtsoption",5,3,3,3,3,3
53.3333333333333,96,684.573486672404,"l","speed","ut2000we","0","b","l","0","0","0",29,2,700,"Tue Mar 28 14:21:08 2023",2,"eher schwer","accuracy","Experiment.osexp","Bild_s2_b_5.png",1080,"we",2000,"ut","orangene","C:/Users/steff/Documents/Universität/Master Psychologie/SS 2022/Masterarbeit/Experiment/subject-8.csv",0,1,0,"a",-15,-65,"a","a",388.575999997556,388.575999997556,8,NA,272009.906199994,NA,182383.381299907,246004.572699894,272399.310699897,271701.997399912,16143.7195999315,NA,NA,12499.1658999352,NA,241008.657799917,271709.272699896,271163.57069998,NA,269519.470199943,NA,246129.113699892,13254.8427999718,47911.5084999939,60324.6155999368,78023.608099902,113558.874899987,119907.357899938,246129.253999912,272399.404599913,NA,248575.354499975,237718.7653,269146.037300001,265571.8719,267179.985599942,240568.23059998,270862.864499912,NA,NA,NA,NA,NA,NA,182383.198399912,246121.950799949,NA,269519.400499994,NA,NA,271158.290599938,12499.2710999213,272010.087199975,12499.2928999709,271701.916299993,182382.400000002,NA,NA,13238.5096999351,220659.171599895,NA,130019.079099991,8,10268.6023000861,15,1,50,1,23,"Germanistik und Romanistik mit Lehramtsoption",5,3,3,3,3,3
56.25,96,671.162268750777,"l","speed","ut2000we","1","b","l","0","1","0",30,2,700,"Tue Mar 28 14:21:08 2023",3,"sehr schwer","accuracy","Experiment.osexp","Bild_s1_b_19.png",1080,"we",2000,"ut","orangene","C:/Users/steff/Documents/Universität/Master Psychologie/SS 2022/Masterarbeit/Experiment/subject-8.csv",0,0,0,"a",-10,-60,"l","l",469.993999926373,469.993999926373,8,NA,273608.462199918,NA,182383.381299907,246004.572699894,274079.143699957,273300.649499986,16143.7195999315,NA,NA,12499.1658999352,NA,241008.657799917,273307.899799896,272728.128399933,NA,272798.147199908,NA,246129.113699892,13254.8427999718,47911.5084999939,60324.6155999368,78023.608099902,113558.874899987,119907.357899938,246129.253999912,274079.216299928,NA,248575.354499975,237718.7653,269146.037300001,265571.8719,272427.571699955,240568.23059998,270862.864499912,NA,NA,NA,NA,NA,NA,182383.198399912,246121.950799949,NA,272798.07619995,NA,NA,272722.780699958,12499.2710999213,273608.667199966,12499.2928999709,273300.569699961,182382.400000002,NA,NA,13238.5096999351,220659.171599895,NA,130019.079099991,9,10738.5963000124,16,1,50,1,23,"Germanistik und Romanistik mit Lehramtsoption",5,3,3,3,3,3
58.8235294117647,96,656.388811767101,"l","speed","ut2000we","1","o","a","0","1","0",31,2,700,"Tue Mar 28 14:21:08 2023",3,"sehr schwer","accuracy","Experiment.osexp","Bild_s1_o_5.png",1080,"we",2000,"ut","orangene","C:/Users/steff/Documents/Universität/Master Psychologie/SS 2022/Masterarbeit/Experiment/subject-8.csv",0,0,0,"a",-5,-55,"a","a",420.01350002829,420.01350002829,8,NA,275242.551399977,NA,182383.381299907,246004.572699894,275663.391499897,274935.169699951,16143.7195999315,NA,NA,12499.1658999352,NA,241008.657799917,274942.523499951,274394.211499952,NA,272798.147199908,NA,246129.113699892,13254.8427999718,47911.5084999939,60324.6155999368,78023.608099902,113558.874899987,119907.357899938,246129.253999912,275663.4662,NA,248575.354499975,237718.7653,269146.037300001,265571.8719,272427.571699955,240568.23059998,274093.416999909,NA,NA,NA,NA,NA,NA,182383.198399912,246121.950799949,NA,272798.07619995,NA,NA,274388.897700002,12499.2710999213,275242.637999938,12499.2928999709,274935.090099927,182382.400000002,NA,NA,13238.5096999351,220659.171599895,NA,130019.079099991,10,11158.6098000407,17,1,50,1,23,"Germanistik und Romanistik mit Lehramtsoption",5,3,3,3,3,3
100,96,24599.6574666739,"l","accuracy","ut2000we","1","o","a","1","0","0",32,3,700,"Tue Mar 28 14:21:08 2023",0,"sehr leicht","accuracy","Experiment.osexp","Bild_s4_o_9.png",1080,"we",2000,"ut","orangene","C:/Users/steff/Documents/Universität/Master Psychologie/SS 2022/Masterarbeit/Experiment/subject-8.csv",0,0,0,"a",5,5,"a","a",752.662800019607,752.662800019607,8,NA,320157.770799939,316596.8077,182383.381299907,281123.376599979,320911.213899963,319849.270399893,16143.7195999315,281194.596399902,NA,12499.1658999352,NA,276128.168299911,319856.726699974,275988.432199927,319327.928099898,272798.147199908,316693.554700003,246129.113699892,13254.8427999718,47911.5084999939,60324.6155999368,78023.608099902,113558.874899987,119907.357899938,316693.68799997,320911.281599896,319327.088999911,248575.354499975,237718.7653,269146.037300001,265571.8719,272427.571699955,240568.23059998,275687.672599917,NA,NA,NA,NA,NA,316686.624799971,182383.198399912,246121.950799949,319327.881799894,272798.07619995,316596.738799941,316543.384099961,275983.11349994,12499.2710999213,320157.934299903,12499.2928999709,319849.067299976,182382.400000002,281190.394699923,281156.964099966,13238.5096999351,220659.171599895,NA,130019.079099991,3,73798.9724000217,3,0,-5,1,23,"Germanistik und Romanistik mit Lehramtsoption",5,3,3,3,3,3
75,96,18621.3259749929,"l","accuracy","ut2000we","0","o","a","0","0","0",33,3,700,"Tue Mar 28 14:21:08 2023",0,"sehr leicht","accuracy","Experiment.osexp","Bild_s4_o_2.png",1080,"we",2000,"ut","orangene","C:/Users/steff/Documents/Universität/Master Psychologie/SS 2022/Masterarbeit/Experiment/subject-8.csv",1,0,0,"a",-5,-5,"l","l",686.331499950029,686.331499950029,8,NA,322080.195999937,316596.8077,182383.381299907,281123.376599979,322767.15119998,321772.079299903,16143.7195999315,281194.596399902,NA,12499.1658999352,NA,276128.168299911,321779.25989998,321238.638799987,319327.928099898,272798.147199908,316693.554700003,246129.113699892,13254.8427999718,47911.5084999939,60324.6155999368,78023.608099902,113558.874899987,119907.357899938,316693.68799997,322767.220099922,319327.088999911,248575.354499975,237718.7653,269146.037300001,265571.8719,272427.571699955,320937.807499897,275687.672599917,NA,NA,NA,NA,NA,316686.624799971,182383.198399912,246121.950799949,319327.881799894,272798.07619995,316596.738799941,316543.384099961,321233.062099898,12499.2710999213,322080.27809998,12499.2928999709,321771.99899999,182382.400000002,281190.394699923,281156.964099966,13238.5096999351,220659.171599895,NA,130019.079099991,3,74485.3038999718,4,0,-5,1,23,"Germanistik und Romanistik mit Lehramtsoption",5,3,3,3,3,3
80,96,15113.9323999872,"l","accuracy","ut2000we","1","o","a","1","0","0",34,3,700,"Tue Mar 28 14:21:08 2023",0,"sehr leicht","accuracy","Experiment.osexp","Bild_s4_o_13.png",1080,"we",2000,"ut","orangene","C:/Users/steff/Documents/Universität/Master Psychologie/SS 2022/Masterarbeit/Experiment/subject-8.csv",0,0,0,"a",0,0,"a","a",1084.35809996445,1084.35809996445,8,NA,323938.08839994,316596.8077,182383.381299907,281123.376599979,325023.840399925,323630.429199897,16143.7195999315,281194.596399902,NA,12499.1658999352,NA,276128.168299911,323637.51349994,323095.828599995,319327.928099898,272798.147199908,316693.554700003,246129.113699892,13254.8427999718,47911.5084999939,60324.6155999368,78023.608099902,113558.874899987,119907.357899938,316693.68799997,325023.911099997,319327.088999911,248575.354499975,322795.275899931,269146.037300001,265571.8719,272427.571699955,320937.807499897,275687.672599917,NA,NA,NA,NA,NA,316686.624799971,182383.198399912,246121.950799949,319327.881799894,272798.07619995,316596.738799941,316543.384099961,323090.5394,12499.2710999213,323938.246799982,12499.2928999709,323630.347299972,182382.400000002,281190.394699923,281156.964099966,13238.5096999351,220659.171599895,NA,130019.079099991,4,75569.6619999362,5,0,-5,1,23,"Germanistik und Romanistik mit Lehramtsoption",5,3,3,3,3,3
83.3333333333333,96,12687.7904166467,"l","accuracy","ut2000we","1","b","l","1","0","0",35,3,700,"Tue Mar 28 14:21:08 2023",0,"sehr leicht","accuracy","Experiment.osexp","Bild_s4_b_1.png",1080,"we",2000,"ut","orangene","C:/Users/steff/Documents/Universität/Master Psychologie/SS 2022/Masterarbeit/Experiment/subject-8.csv",0,0,0,"a",5,5,"l","l",557.080499944277,557.080499944277,8,NA,326193.316899939,316596.8077,182383.381299907,281123.376599979,326751.300100004,325885.559799965,16143.7195999315,281194.596399902,NA,12499.1658999352,NA,276128.168299911,325892.577599967,325347.053000005,319327.928099898,272798.147199908,316693.554700003,246129.113699892,13254.8427999718,47911.5084999939,60324.6155999368,78023.608099902,113558.874899987,119907.357899938,316693.68799997,326751.368899946,319327.088999911,248575.354499975,322795.275899931,269146.037300001,265571.8719,272427.571699955,325046.491799993,275687.672599917,NA,NA,NA,NA,NA,316686.624799971,182383.198399912,246121.950799949,319327.881799894,272798.07619995,316596.738799941,316543.384099961,325341.870799894,12499.2710999213,326193.534799968,12499.2928999709,325885.481999954,182382.400000002,281190.394699923,281156.964099966,13238.5096999351,220659.171599895,NA,130019.079099991,5,76126.7424998805,6,0,-5,1,23,"Germanistik und Romanistik mit Lehramtsoption",5,3,3,3,3,3
85.7142857142857,96,10963.2321428341,"l","accuracy","ut2000we","1","o","a","1","0","0",36,3,700,"Tue Mar 28 14:21:08 2023",0,"sehr leicht","accuracy","Experiment.osexp","Bild_s4_o_5.png",1080,"we",2000,"ut","orangene","C:/Users/steff/Documents/Universität/Master Psychologie/SS 2022/Masterarbeit/Experiment/subject-8.csv",0,0,0,"a",10,10,"a","a",615.882499958389,615.882499958389,8,NA,327910.634199972,316596.8077,182383.381299907,281123.376599979,328527.403799933,327603.00569993,16143.7195999315,281194.596399902,NA,12499.1658999352,NA,276128.168299911,327610.068499926,327067.236299976,319327.928099898,272798.147199908,316693.554700003,246129.113699892,13254.8427999718,47911.5084999939,60324.6155999368,78023.608099902,113558.874899987,119907.357899938,316693.68799997,328527.482199948,319327.088999911,248575.354499975,322795.275899931,269146.037300001,265571.8719,272427.571699955,326766.948299948,275687.672599917,NA,NA,NA,NA,NA,316686.624799971,182383.198399912,246121.950799949,319327.881799894,272798.07619995,316596.738799941,316543.384099961,327061.917299987,12499.2710999213,327910.7143,12499.2928999709,327602.923700004,182382.400000002,281190.394699923,281156.964099966,13238.5096999351,220659.171599895,NA,130019.079099991,6,76742.6249998389,7,0,-5,1,23,"Germanistik und Romanistik mit Lehramtsoption",5,3,3,3,3,3
87.5,96,9655.38423747057,"l","accuracy","ut2000we","1","b","l","1","0","0",37,3,700,"Tue Mar 28 14:21:08 2023",0,"sehr leicht","accuracy","Experiment.osexp","Bild_s4_b_20.png",1080,"we",2000,"ut","orangene","C:/Users/steff/Documents/Universität/Master Psychologie/SS 2022/Masterarbeit/Experiment/subject-8.csv",0,0,0,"a",15,15,"l","l",500.448899925686,500.448899925686,8,NA,329690.083299996,316596.8077,182383.381299907,281123.376599979,330191.102499957,329381.66459999,16143.7195999315,281194.596399902,NA,12499.1658999352,NA,276128.168299911,329388.60559999,328840.311699896,319327.928099898,272798.147199908,316693.554700003,246129.113699892,13254.8427999718,47911.5084999939,60324.6155999368,78023.608099902,113558.874899987,119907.357899938,316693.68799997,330191.170599894,319327.088999911,248575.354499975,322795.275899931,269146.037300001,265571.8719,272427.571699955,328539.11319992,275687.672599917,NA,NA,NA,NA,NA,316686.624799971,182383.198399912,246121.950799949,319327.881799894,272798.07619995,316596.738799941,316543.384099961,328834.856299916,12499.2710999213,329690.171999973,12499.2928999709,329381.585399969,182382.400000002,281190.394699923,281156.964099966,13238.5096999351,220659.171599895,NA,130019.079099991,7,77243.0738997646,8,0,-5,1,23,"Germanistik und Romanistik mit Lehramtsoption",5,3,3,3,3,3
88.8888888888889,96,8658.59727774902,"l","accuracy","ut2000we","1","b","l","1","0","0",38,3,700,"Tue Mar 28 14:21:08 2023",0,"sehr leicht","accuracy","Experiment.osexp","Bild_s4_b_14.png",1080,"we",2000,"ut","orangene","C:/Users/steff/Documents/Universität/Master Psychologie/SS 2022/Masterarbeit/Experiment/subject-8.csv",0,0,0,"a",20,20,"l","l",684.301599976607,684.301599976607,8,NA,331346.261799918,316596.8077,182383.381299907,281123.376599979,332031.209399924,331038.057099911,16143.7195999315,281194.596399902,NA,12499.1658999352,NA,276128.168299911,331045.329099987,330506.439199904,319327.928099898,272798.147199908,316693.554700003,246129.113699892,13254.8427999718,47911.5084999939,60324.6155999368,78023.608099902,113558.874899987,119907.357899938,316693.68799997,332031.279799994,319327.088999911,248575.354499975,322795.275899931,269146.037300001,265571.8719,272427.571699955,330205.921999994,275687.672599917,NA,NA,NA,NA,NA,316686.624799971,182383.198399912,246121.950799949,319327.881799894,272798.07619995,316596.738799941,316543.384099961,330501.08899991,12499.2710999213,331346.345899976,12499.2928999709,331037.979399902,182382.400000002,281190.394699923,281156.964099966,13238.5096999351,220659.171599895,NA,130019.079099991,8,77927.3754997412,9,0,-5,1,23,"Germanistik und Romanistik mit Lehramtsoption",5,3,3,3,3,3
90,96,7870.88816997129,"l","accuracy","ut2000we","1","b","l","1","0","0",39,3,700,"Tue Mar 28 14:21:08 2023",0,"sehr leicht","accuracy","Experiment.osexp","Bild_s4_b_12.png",1080,"we",2000,"ut","orangene","C:/Users/steff/Documents/Universität/Master Psychologie/SS 2022/Masterarbeit/Experiment/subject-8.csv",0,0,0,"a",25,25,"l","l",781.506199971773,781.506199971773,8,NA,333200.956499903,316596.8077,182383.381299907,281123.376599979,333983.25109994,332891.349399928,16143.7195999315,281194.596399902,NA,12499.1658999352,NA,276128.168299911,332898.24749995,332359.683999908,319327.928099898,272798.147199908,316693.554700003,246129.113699892,13254.8427999718,47911.5084999939,60324.6155999368,78023.608099902,113558.874899987,119907.357899938,316693.68799997,333983.320300002,319327.088999911,248575.354499975,322795.275899931,269146.037300001,265571.8719,272427.571699955,332059.024999966,275687.672599917,NA,NA,NA,NA,NA,316686.624799971,182383.198399912,246121.950799949,319327.881799894,272798.07619995,316596.738799941,316543.384099961,332354.315300006,12499.2710999213,333201.085599954,12499.2928999709,332891.27189992,182382.400000002,281190.394699923,281156.964099966,13238.5096999351,220659.171599895,NA,130019.079099991,9,78708.8816997129,10,0,-5,1,23,"Germanistik und Romanistik mit Lehramtsoption",5,3,3,3,3,3
90.9090909090909,96,7202.94769088187,"l","accuracy","ut2000we","1","o","a","1","0","0",40,3,700,"Tue Mar 28 14:21:08 2023",0,"sehr leicht","accuracy","Experiment.osexp","Bild_s4_o_17.png",1080,"we",2000,"ut","orangene","C:/Users/steff/Documents/Universität/Master Psychologie/SS 2022/Masterarbeit/Experiment/subject-8.csv",0,0,0,"a",30,30,"a","a",523.54289998766,523.54289998766,8,NA,335186.983099906,316596.8077,182383.381299907,281123.376599979,335711.273399997,334879.316799925,16143.7195999315,281194.596399902,NA,12499.1658999352,NA,276128.168299911,334886.47519995,334305.190099985,334378.831999958,272798.147199908,316693.554700003,246129.113699892,13254.8427999718,47911.5084999939,60324.6155999368,78023.608099902,113558.874899987,119907.357899938,316693.68799997,335711.34109993,319327.088999911,248575.354499975,322795.275899931,269146.037300001,265571.8719,272427.571699955,334004.50099993,275687.672599917,NA,NA,NA,NA,NA,316686.624799971,182383.198399912,246121.950799949,334378.756199963,272798.07619995,316596.738799941,316543.384099961,334299.850199954,12499.2710999213,335187.067299965,12499.2928999709,334879.23979992,182382.400000002,281190.394699923,281156.964099966,13238.5096999351,220659.171599895,NA,130019.079099991,10,79232.4245997006,11,0,-5,1,23,"Germanistik und Romanistik mit Lehramtsoption",5,3,3,3,3,3
91.6666666666667,96,6645.06404163937,"l","accuracy","ut2000we","1","o","a","1","0","0",41,3,700,"Tue Mar 28 14:21:08 2023",0,"sehr leicht","accuracy","Experiment.osexp","Bild_s4_o_3.png",1080,"we",2000,"ut","orangene","C:/Users/steff/Documents/Universität/Master Psychologie/SS 2022/Masterarbeit/Experiment/subject-8.csv",0,0,0,"a",35,35,"a","a",508.343899971806,508.343899971806,8,NA,336882.176899933,316596.8077,182383.381299907,281123.376599979,337391.107999953,336574.059999897,16143.7195999315,281194.596399902,NA,12499.1658999352,NA,276128.168299911,336581.044799997,336041.892199893,334378.831999958,272798.147199908,316693.554700003,246129.113699892,13254.8427999718,47911.5084999939,60324.6155999368,78023.608099902,113558.874899987,119907.357899938,316693.68799997,337391.17879991,319327.088999911,248575.354499975,322795.275899931,269146.037300001,265571.8719,272427.571699955,335741.59739993,275687.672599917,NA,NA,NA,NA,NA,316686.624799971,182383.198399912,246121.950799949,334378.756199963,272798.07619995,316596.738799941,316543.384099961,336036.607499933,12499.2710999213,336882.261899998,12499.2928999709,336573.978199973,182382.400000002,281190.394699923,281156.964099966,13238.5096999351,220659.171599895,NA,130019.079099991,11,79740.7684996724,12,0,-5,1,23,"Germanistik und Romanistik mit Lehramtsoption",5,3,3,3,3,3
92.3076923076923,96,6183.94129228993,"l","accuracy","ut2000we","1","b","l","1","0","0",42,3,700,"Tue Mar 28 14:21:08 2023",0,"sehr leicht","accuracy","Experiment.osexp","Bild_s4_b_5.png",1080,"we",2000,"ut","orangene","C:/Users/steff/Documents/Universität/Master Psychologie/SS 2022/Masterarbeit/Experiment/subject-8.csv",0,0,0,"a",40,40,"l","l",650.468300096691,650.468300096691,8,NA,338548.061699956,316596.8077,182383.381299907,281123.376599979,339199.182399898,338240.051799919,16143.7195999315,281194.596399902,NA,12499.1658999352,NA,276128.168299911,338246.95099995,337709.119199892,334378.831999958,272798.147199908,316693.554700003,246129.113699892,13254.8427999718,47911.5084999939,60324.6155999368,78023.608099902,113558.874899987,119907.357899938,316693.68799997,339199.253599974,319327.088999911,248575.354499975,322795.275899931,269146.037300001,265571.8719,272427.571699955,337408.801599988,275687.672599917,NA,NA,NA,NA,NA,316686.624799971,182383.198399912,246121.950799949,334378.756199963,272798.07619995,316596.738799941,316543.384099961,337703.686499968,12499.2710999213,338548.147099908,12499.2928999709,338239.972999902,182382.400000002,281190.394699923,281156.964099966,13238.5096999351,220659.171599895,NA,130019.079099991,12,80391.2367997691,13,0,-5,1,23,"Germanistik und Romanistik mit Lehramtsoption",5,3,3,3,3,3
92.8571428571429,96,5784.36941427312,"l","accuracy","ut2000we","1","o","a","1","0","0",43,3,700,"Tue Mar 28 14:21:08 2023",0,"sehr leicht","accuracy","Experiment.osexp","Bild_s4_o_18.png",1080,"we",2000,"ut","orangene","C:/Users/steff/Documents/Universität/Master Psychologie/SS 2022/Masterarbeit/Experiment/subject-8.csv",0,0,0,"a",45,45,"a","a",589.935000054538,589.935000054538,8,NA,340368.490299908,316596.8077,182383.381299907,281123.376599979,340959.286700003,340060.459899949,16143.7195999315,281194.596399902,NA,12499.1658999352,NA,276128.168299911,340067.928899894,339521.151899942,334378.831999958,272798.147199908,316693.554700003,246129.113699892,13254.8427999718,47911.5084999939,60324.6155999368,78023.608099902,113558.874899987,119907.357899938,316693.68799997,340959.354799939,319327.088999911,248575.354499975,322795.275899931,269146.037300001,265571.8719,272427.571699955,339220.452299924,275687.672599917,NA,NA,NA,NA,NA,316686.624799971,182383.198399912,246121.950799949,334378.756199963,272798.07619995,316596.738799941,316543.384099961,339515.714999987,12499.2710999213,340368.661399931,12499.2928999709,340060.378699913,182382.400000002,281190.394699923,281156.964099966,13238.5096999351,220659.171599895,NA,130019.079099991,13,80981.1717998236,14,0,-5,1,23,"Germanistik und Romanistik mit Lehramtsoption",5,3,3,3,3,3
93.3333333333333,96,5433.67866665746,"l","accuracy","ut2000we","1","b","l","1","0","0",44,3,700,"Tue Mar 28 14:21:08 2023",0,"sehr leicht","accuracy","Experiment.osexp","Bild_s4_b_22.png",1080,"we",2000,"ut","orangene","C:/Users/steff/Documents/Universität/Master Psychologie/SS 2022/Masterarbeit/Experiment/subject-8.csv",0,0,0,"a",50,50,"l","l",524.008200038224,524.008200038224,8,NA,342130.501599982,316596.8077,182383.381299907,281123.376599979,342655.265799956,341822.493299958,16143.7195999315,281194.596399902,NA,12499.1658999352,NA,276128.168299911,341829.407099984,341289.270599955,334378.831999958,272798.147199908,316693.554700003,246129.113699892,13254.8427999718,47911.5084999939,60324.6155999368,78023.608099902,113558.874899987,119907.357899938,316693.68799997,342655.332900002,319327.088999911,248575.354499975,322795.275899931,269146.037300001,265571.8719,272427.571699955,340989.019899978,275687.672599917,NA,NA,NA,NA,NA,316686.624799971,182383.198399912,246121.950799949,334378.756199963,272798.07619995,316596.738799941,316543.384099961,341283.946099924,12499.2710999213,342130.591399968,12499.2928999709,341822.412599926,182382.400000002,281190.394699923,281156.964099966,13238.5096999351,220659.171599895,NA,130019.079099991,14,81505.1799998619,15,0,-5,1,23,"Germanistik und Romanistik mit Lehramtsoption",5,3,3,3,3,3
93.75,96,5123.54552499164,"l","accuracy","ut2000we","1","b","l","1","0","0",45,3,700,"Tue Mar 28 14:21:08 2023",0,"sehr leicht","accuracy","Experiment.osexp","Bild_s4_b_17.png",1080,"we",2000,"ut","orangene","C:/Users/steff/Documents/Universität/Master Psychologie/SS 2022/Masterarbeit/Experiment/subject-8.csv",0,0,0,"a",55,55,"l","l",471.548400004394,471.548400004394,8,NA,343830.940999906,316596.8077,182383.381299907,281123.376599979,344303.40809992,343523.097499972,16143.7195999315,281194.596399902,NA,12499.1658999352,NA,276128.168299911,343529.839299968,342985.578999971,334378.831999958,272798.147199908,316693.554700003,246129.113699892,13254.8427999718,47911.5084999939,60324.6155999368,78023.608099902,113558.874899987,119907.357899938,316693.68799997,344303.481399897,319327.088999911,248575.354499975,322795.275899931,269146.037300001,265571.8719,272427.571699955,342684.870700003,275687.672599917,NA,NA,NA,NA,NA,316686.624799971,182383.198399912,246121.950799949,334378.756199963,272798.07619995,316596.738799941,316543.384099961,342980.134899961,12499.2710999213,343831.0472999,12499.2928999709,343523.017299944,182382.400000002,281190.394699923,281156.964099966,13238.5096999351,220659.171599895,NA,130019.079099991,15,81976.7283998663,16,0,-5,1,23,"Germanistik und Romanistik mit Lehramtsoption",5,3,3,3,3,3
94.1176470588235,96,4852.62905293391,"l","accuracy","ut2000we","1","o","a","1","0","0",46,3,700,"Tue Mar 28 14:21:08 2023",0,"sehr leicht","accuracy","Experiment.osexp","Bild_s4_o_8.png",1080,"we",2000,"ut","orangene","C:/Users/steff/Documents/Universität/Master Psychologie/SS 2022/Masterarbeit/Experiment/subject-8.csv",0,0,0,"a",60,60,"a","a",517.965500010177,517.965500010177,8,NA,345496.548599913,316596.8077,182383.381299907,281123.376599979,346015.218699933,345188.613799983,16143.7195999315,281194.596399902,NA,12499.1658999352,NA,276128.168299911,345195.955100004,344659.310399904,334378.831999958,272798.147199908,316693.554700003,246129.113699892,13254.8427999718,47911.5084999939,60324.6155999368,78023.608099902,113558.874899987,119907.357899938,316693.68799997,346015.288499999,319327.088999911,248575.354499975,322795.275899931,269146.037300001,265571.8719,272427.571699955,344358.506299905,275687.672599917,NA,NA,NA,NA,NA,316686.624799971,182383.198399912,246121.950799949,334378.756199963,272798.07619995,316596.738799941,316543.384099961,344654.014899977,12499.2710999213,345496.629299945,12499.2928999709,345188.534499961,182382.400000002,281190.394699923,281156.964099966,13238.5096999351,220659.171599895,NA,130019.079099991,16,82494.6938998764,17,0,-5,1,23,"Germanistik und Romanistik mit Lehramtsoption",5,3,3,3,3,3
94.4444444444444,96,4611.59735555217,"l","accuracy","ut2000we","1","o","a","1","0","0",47,3,700,"Tue Mar 28 14:21:08 2023",0,"sehr leicht","accuracy","Experiment.osexp","Bild_s4_o_7.png",1080,"we",2000,"ut","orangene","C:/Users/steff/Documents/Universität/Master Psychologie/SS 2022/Masterarbeit/Experiment/subject-8.csv",0,0,0,"a",65,65,"a","a",514.058500062674,514.058500062674,8,NA,347180.474399938,316596.8077,182383.381299907,281123.376599979,347695.359400008,346871.741499985,16143.7195999315,281194.596399902,NA,12499.1658999352,NA,276128.168299911,346879.081099993,346331.435899949,334378.831999958,272798.147199908,316693.554700003,246129.113699892,13254.8427999718,47911.5084999939,60324.6155999368,78023.608099902,113558.874899987,119907.357899938,316693.68799997,347695.426999941,319327.088999911,248575.354499975,322795.275899931,269146.037300001,265571.8719,272427.571699955,346030.517999898,275687.672599917,NA,NA,NA,NA,NA,316686.624799971,182383.198399912,246121.950799949,334378.756199963,272798.07619995,316596.738799941,316543.384099961,346325.970799895,12499.2710999213,347180.560899898,12499.2928999709,346871.596599929,182382.400000002,281190.394699923,281156.964099966,13238.5096999351,220659.171599895,NA,130019.079099991,17,83008.7523999391,18,0,-5,1,23,"Germanistik und Romanistik mit Lehramtsoption",5,3,3,3,3,3
94.7368421052632,96,4393.39554209973,"l","accuracy","ut2000we","1","o","a","1","0","0",48,3,700,"Tue Mar 28 14:21:08 2023",1,"eher leicht","accuracy","Experiment.osexp","Bild_s3_o_14.png",1080,"we",2000,"ut","orangene","C:/Users/steff/Documents/Universität/Master Psychologie/SS 2022/Masterarbeit/Experiment/subject-8.csv",0,0,0,"a",70,70,"a","a",465.762899955735,465.762899955735,8,NA,348892.626999994,316596.8077,182383.381299907,281123.376599979,349359.098799992,348584.631899954,16143.7195999315,281194.596399902,NA,12499.1658999352,NA,276128.168299911,348591.972799972,348010.889299912,348082.037199987,272798.147199908,316693.554700003,246129.113699892,13254.8427999718,47911.5084999939,60324.6155999368,78023.608099902,113558.874899987,119907.357899938,316693.68799997,349359.165999922,319327.088999911,248575.354499975,322795.275899931,269146.037300001,265571.8719,272427.571699955,347710.288299946,275687.672599917,NA,NA,NA,NA,NA,316686.624799971,182383.198399912,246121.950799949,348081.965499907,272798.07619995,316596.738799941,316543.384099961,348005.686299992,12499.2710999213,348892.805699958,12499.2928999709,348584.552799934,182382.400000002,281190.394699923,281156.964099966,13238.5096999351,220659.171599895,NA,130019.079099991,18,83474.5152998948,19,0,-5,1,23,"Germanistik und Romanistik mit Lehramtsoption",5,3,3,3,3,3
95,96,4207.17113999417,"l","accuracy","ut2000we","1","o","a","1","0","0",49,3,700,"Tue Mar 28 14:21:08 2023",1,"eher leicht","accuracy","Experiment.osexp","Bild_s3_o_8.png",1080,"we",2000,"ut","orangene","C:/Users/steff/Documents/Universität/Master Psychologie/SS 2022/Masterarbeit/Experiment/subject-8.csv",0,0,0,"a",75,75,"a","a",668.907499988563,668.907499988563,8,NA,350545.602799975,316596.8077,182383.381299907,281123.376599979,351215.195799945,350238.015699899,16143.7195999315,281194.596399902,NA,12499.1658999352,NA,276128.168299911,350244.843099965,349689.632399939,348082.037199987,272798.147199908,316693.554700003,246129.113699892,13254.8427999718,47911.5084999939,60324.6155999368,78023.608099902,113558.874899987,119907.357899938,316693.68799997,351215.265200008,319327.088999911,248575.354499975,322795.275899931,269146.037300001,265571.8719,272427.571699955,349389.024699922,275687.672599917,NA,NA,NA,NA,NA,316686.624799971,182383.198399912,246121.950799949,348081.965499907,272798.07619995,316596.738799941,316543.384099961,349684.180399985,12499.2710999213,350545.689299935,12499.2928999709,350237.935399986,182382.400000002,281190.394699923,281156.964099966,13238.5096999351,220659.171599895,NA,130019.079099991,19,84143.4227998834,20,0,-5,1,23,"Germanistik und Romanistik mit Lehramtsoption",5,3,3,3,3,3
95.2380952380952,96,4029.1231285692,"l","accuracy","ut2000we","1","b","l","1","0","0",50,3,700,"Tue Mar 28 14:21:08 2023",1,"eher leicht","accuracy","Experiment.osexp","Bild_s3_b_20.png",1080,"we",2000,"ut","orangene","C:/Users/steff/Documents/Universität/Master Psychologie/SS 2022/Masterarbeit/Experiment/subject-8.csv",0,0,0,"a",80,80,"l","l",468.162900069728,468.162900069728,8,NA,352378.349200008,316596.8077,182383.381299907,281123.376599979,352847.134199925,352070.784199983,16143.7195999315,281194.596399902,NA,12499.1658999352,NA,276128.168299911,352077.784599969,351530.820699991,348082.037199987,272798.147199908,316693.554700003,246129.113699892,13254.8427999718,47911.5084999939,60324.6155999368,78023.608099902,113558.874899987,119907.357899938,316693.68799997,352847.205099999,319327.088999911,248575.354499975,322795.275899931,269146.037300001,265571.8719,272427.571699955,351230.355699896,275687.672599917,NA,NA,NA,NA,NA,316686.624799971,182383.198399912,246121.950799949,348081.965499907,272798.07619995,316596.738799941,316543.384099961,351525.434499956,12499.2710999213,352378.431399935,12499.2928999709,352070.707299979,182382.400000002,281190.394699923,281156.964099966,13238.5096999351,220659.171599895,NA,130019.079099991,20,84611.5856999531,21,0,-5,1,23,"Germanistik und Romanistik mit Lehramtsoption",5,3,3,3,3,3
95.4545454545454,96,3874.30551363452,"l","accuracy","ut2000we","1","b","l","1","0","0",51,3,700,"Tue Mar 28 14:21:08 2023",1,"eher leicht","accuracy","Experiment.osexp","Bild_s3_b_15.png",1080,"we",2000,"ut","orangene","C:/Users/steff/Documents/Universität/Master Psychologie/SS 2022/Masterarbeit/Experiment/subject-8.csv",0,0,0,"a",85,85,"l","l",623.135600006208,623.135600006208,8,NA,354031.369399978,316596.8077,182383.381299907,281123.376599979,354655.155399931,353723.301499966,16143.7195999315,281194.596399902,NA,12499.1658999352,NA,276128.168299911,353730.301999953,353177.939699963,348082.037199987,272798.147199908,316693.554700003,246129.113699892,13254.8427999718,47911.5084999939,60324.6155999368,78023.608099902,113558.874899987,119907.357899938,316693.68799997,354655.223599984,319327.088999911,248575.354499975,322795.275899931,269146.037300001,265571.8719,272427.571699955,352877.293099998,275687.672599917,NA,NA,NA,NA,NA,316686.624799971,182383.198399912,246121.950799949,348081.965499907,272798.07619995,316596.738799941,316543.384099961,353172.46859998,12499.2710999213,354031.456399942,12499.2928999709,353723.213899997,182382.400000002,281190.394699923,281156.964099966,13238.5096999351,220659.171599895,NA,130019.079099991,21,85234.7212999593,22,0,-5,1,23,"Germanistik und Romanistik mit Lehramtsoption",5,3,3,3,3,3
95.6521739130435,96,3728.9563130395,"l","accuracy","ut2000we","1","o","a","1","0","0",52,3,700,"Tue Mar 28 14:21:08 2023",1,"eher leicht","accuracy","Experiment.osexp","Bild_s3_o_15.png",1080,"we",2000,"ut","orangene","C:/Users/steff/Documents/Universität/Master Psychologie/SS 2022/Masterarbeit/Experiment/subject-8.csv",0,0,0,"a",90,90,"a","a",531.273899949156,531.273899949156,8,NA,355819.235099945,316596.8077,182383.381299907,281123.376599979,356351.33669991,355511.181099922,16143.7195999315,281194.596399902,NA,12499.1658999352,NA,276128.168299911,355518.561400007,354974.170099944,348082.037199987,272798.147199908,316693.554700003,246129.113699892,13254.8427999718,47911.5084999939,60324.6155999368,78023.608099902,113558.874899987,119907.357899938,316693.68799997,356351.407399983,319327.088999911,248575.354499975,322795.275899931,269146.037300001,265571.8719,272427.571699955,354673.537699971,275687.672599917,NA,NA,NA,NA,NA,316686.624799971,182383.198399912,246121.950799949,348081.965499907,272798.07619995,316596.738799941,316543.384099961,354968.852799968,12499.2710999213,355819.314899971,12499.2928999709,355511.098799994,182382.400000002,281190.394699923,281156.964099966,13238.5096999351,220659.171599895,NA,130019.079099991,22,85765.9951999085,23,0,-5,1,23,"Germanistik und Romanistik mit Lehramtsoption",5,3,3,3,3,3
95.8333333333333,96,3594.06327499407,"l","accuracy","ut2000we","1","b","l","1","0","0",53,3,700,"Tue Mar 28 14:21:08 2023",1,"eher leicht","accuracy","Experiment.osexp","Bild_s3_b_2.png",1080,"we",2000,"ut","orangene","C:/Users/steff/Documents/Universität/Master Psychologie/SS 2022/Masterarbeit/Experiment/subject-8.csv",0,0,0,"a",95,95,"l","l",491.523399949074,491.523399949074,8,NA,357522.98619994,316596.8077,182383.381299907,281123.376599979,358015.239099972,357214.9737,16143.7195999315,281194.596399902,NA,12499.1658999352,NA,276128.168299911,357222.265799996,356683.698799927,348082.037199987,272798.147199908,316693.554700003,246129.113699892,13254.8427999718,47911.5084999939,60324.6155999368,78023.608099902,113558.874899987,119907.357899938,316693.68799997,358015.308099915,319327.088999911,248575.354499975,322795.275899931,269146.037300001,265571.8719,272427.571699955,356383.014199906,275687.672599917,NA,NA,NA,NA,NA,316686.624799971,182383.198399912,246121.950799949,348081.965499907,272798.07619995,316596.738799941,316543.384099961,356678.343899897,12499.2710999213,357523.064399953,12499.2928999709,357214.855599916,182382.400000002,281190.394699923,281156.964099966,13238.5096999351,220659.171599895,NA,130019.079099991,23,86257.5185998576,24,0,-5,1,23,"Germanistik und Romanistik mit Lehramtsoption",5,3,3,3,3,3
96,96,3473.01725999452,"l","accuracy","ut2000we","1","o","a","1","0","0",54,3,700,"Tue Mar 28 14:21:08 2023",1,"eher leicht","accuracy","Experiment.osexp","Bild_s3_o_2.png",1080,"we",2000,"ut","orangene","C:/Users/steff/Documents/Universität/Master Psychologie/SS 2022/Masterarbeit/Experiment/subject-8.csv",0,0,0,"a",100,100,"a","a",567.912900005467,567.912900005467,8,NA,359190.582799958,316596.8077,182383.381299907,281123.376599979,359759.369799984,358882.558899932,16143.7195999315,281194.596399902,NA,12499.1658999352,NA,276128.168299911,358889.466999914,358347.703399952,348082.037199987,272798.147199908,316693.554700003,246129.113699892,13254.8427999718,47911.5084999939,60324.6155999368,78023.608099902,113558.874899987,119907.357899938,316693.68799997,359759.441999951,319327.088999911,248575.354499975,322795.275899931,269146.037300001,265571.8719,272427.571699955,358046.58929992,275687.672599917,NA,NA,NA,NA,NA,316686.624799971,182383.198399912,246121.950799949,348081.965499907,272798.07619995,316596.738799941,316543.384099961,358342.376699904,12499.2710999213,359190.674699959,12499.2928999709,358882.481299923,182382.400000002,281190.394699923,281156.964099966,13238.5096999351,220659.171599895,NA,130019.079099991,24,86825.431499863,25,0,-5,1,23,"Germanistik und Romanistik mit Lehramtsoption",5,3,3,3,3,3
96.1538461538462,96,3361.84978460929,"l","accuracy","ut2000we","1","b","l","1","0","0",55,3,700,"Tue Mar 28 14:21:08 2023",1,"eher leicht","accuracy","Experiment.osexp","Bild_s3_b_7.png",1080,"we",2000,"ut","orangene","C:/Users/steff/Documents/Universität/Master Psychologie/SS 2022/Masterarbeit/Experiment/subject-8.csv",0,0,0,"a",105,105,"l","l",582.662899978459,582.662899978459,8,NA,360935.865100008,316596.8077,182383.381299907,281123.376599979,361519.329799921,360628.056599991,16143.7195999315,281194.596399902,NA,12499.1658999352,NA,276128.168299911,360634.948799969,360091.786199948,348082.037199987,272798.147199908,316693.554700003,246129.113699892,13254.8427999718,47911.5084999939,60324.6155999368,78023.608099902,113558.874899987,119907.357899938,316693.68799997,361519.402899896,319327.088999911,248575.354499975,322795.275899931,269146.037300001,265571.8719,272427.571699955,359791.140999994,275687.672599917,NA,NA,NA,NA,NA,316686.624799971,182383.198399912,246121.950799949,348081.965499907,272798.07619995,316596.738799941,316543.384099961,360086.406699964,12499.2710999213,360935.950699961,12499.2928999709,360627.979099983,182382.400000002,281190.394699923,281156.964099966,13238.5096999351,220659.171599895,NA,130019.079099991,25,87408.0943998415,26,0,-5,1,23,"Germanistik und Romanistik mit Lehramtsoption",5,3,3,3,3,3
96.2962962962963,96,3257.24359999273,"l","accuracy","ut2000we","1","o","a","1","0","0",56,3,700,"Tue Mar 28 14:21:08 2023",2,"eher schwer","accuracy","Experiment.osexp","Bild_s2_o_19.png",1080,"we",2000,"ut","orangene","C:/Users/steff/Documents/Universität/Master Psychologie/SS 2022/Masterarbeit/Experiment/subject-8.csv",0,0,0,"a",110,110,"a","a",537.482799962163,537.482799962163,8,NA,362724.918399937,316596.8077,182383.381299907,281123.376599979,363263.303499902,362417.226599995,16143.7195999315,281194.596399902,NA,12499.1658999352,NA,276128.168299911,362424.302599975,361850.0510999,361921.270599938,272798.147199908,316693.554700003,246129.113699892,13254.8427999718,47911.5084999939,60324.6155999368,78023.608099902,113558.874899987,119907.357899938,316693.68799997,363263.372899964,319327.088999911,248575.354499975,322795.275899931,269146.037300001,265571.8719,272427.571699955,361549.442699994,275687.672599917,NA,NA,NA,NA,NA,316686.624799971,182383.198399912,246121.950799949,361921.19839997,272798.07619995,316596.738799941,316543.384099961,361844.708799967,12499.2710999213,362725.109699997,12499.2928999709,362417.145299958,182382.400000002,281190.394699923,281156.964099966,13238.5096999351,220659.171599895,NA,130019.079099991,26,87945.5771998037,27,0,-5,1,23,"Germanistik und Romanistik mit Lehramtsoption",5,3,3,3,3,3
92.8571428571429,96,3155.75702499232,"l","accuracy","ut2000we","0","o","a","0","0","0",57,3,700,"Tue Mar 28 14:21:08 2023",2,"eher schwer","accuracy","Experiment.osexp","Bild_s2_o_14.png",1080,"we",2000,"ut","orangene","C:/Users/steff/Documents/Universität/Master Psychologie/SS 2022/Masterarbeit/Experiment/subject-8.csv",1,0,0,"a",100,100,"l","l",415.619499981403,415.619499981403,8,NA,364430.886299931,316596.8077,182383.381299907,281123.376599979,364847.277899971,364122.782599996,16143.7195999315,281194.596399902,NA,12499.1658999352,NA,276128.168299911,364129.912999924,363582.011299906,361921.270599938,272798.147199908,316693.554700003,246129.113699892,13254.8427999718,47911.5084999939,60324.6155999368,78023.608099902,113558.874899987,119907.357899938,316693.68799997,364847.347299918,319327.088999911,248575.354499975,322795.275899931,269146.037300001,265571.8719,272427.571699955,363281.708399998,275687.672599917,NA,NA,NA,NA,NA,316686.624799971,182383.198399912,246121.950799949,361921.19839997,272798.07619995,316596.738799941,316543.384099961,363576.676899916,12499.2710999213,364430.969899986,12499.2928999709,364122.703499976,182382.400000002,281190.394699923,281156.964099966,13238.5096999351,220659.171599895,NA,130019.079099991,26,88361.1966997851,28,0,-5,1,23,"Germanistik und Romanistik mit Lehramtsoption",5,3,3,3,3,3
93.1034482758621,96,3074.51853102699,"l","accuracy","ut2000we","1","o","a","1","0","0",58,3,700,"Tue Mar 28 14:21:08 2023",2,"eher schwer","accuracy","Experiment.osexp","Bild_s2_o_10.png",1080,"we",2000,"ut","orangene","C:/Users/steff/Documents/Universität/Master Psychologie/SS 2022/Masterarbeit/Experiment/subject-8.csv",0,0,0,"a",105,105,"a","a",799.840699997731,799.840699997731,8,NA,366014.671299956,316596.8077,182383.381299907,281123.376599979,366815.334699931,365706.671499997,16143.7195999315,281194.596399902,NA,12499.1658999352,NA,276128.168299911,365713.956099935,365168.526099995,361921.270599938,272798.147199908,316693.554700003,246129.113699892,13254.8427999718,47911.5084999939,60324.6155999368,78023.608099902,113558.874899987,119907.357899938,316693.68799997,366815.405999892,319327.088999911,248575.354499975,364868.277399917,269146.037300001,265571.8719,272427.571699955,363281.708399998,275687.672599917,NA,NA,NA,NA,NA,316686.624799971,182383.198399912,246121.950799949,361921.19839997,272798.07619995,316596.738799941,316543.384099961,365163.137999945,12499.2710999213,366014.753199997,12499.2928999709,365706.592399976,182382.400000002,281190.394699923,281156.964099966,13238.5096999351,220659.171599895,NA,130019.079099991,27,89161.0373997828,29,0,-5,1,23,"Germanistik und Romanistik mit Lehramtsoption",5,3,3,3,3,3
93.3333333333333,96,2988.99553666124,"l","accuracy","ut2000we","1","b","l","1","0","0",59,3,700,"Tue Mar 28 14:21:08 2023",2,"eher schwer","accuracy","Experiment.osexp","Bild_s2_b_19.png",1080,"we",2000,"ut","orangene","C:/Users/steff/Documents/Universität/Master Psychologie/SS 2022/Masterarbeit/Experiment/subject-8.csv",0,0,0,"a",110,110,"l","l",508.828700054437,508.828700054437,8,NA,367985.563099966,316596.8077,182383.381299907,281123.376599979,368495.18879992,367677.510099951,16143.7195999315,281194.596399902,NA,12499.1658999352,NA,276128.168299911,367684.947800008,367131.237099995,361921.270599938,272798.147199908,316693.554700003,246129.113699892,13254.8427999718,47911.5084999939,60324.6155999368,78023.608099902,113558.874899987,119907.357899938,316693.68799997,368495.257499977,319327.088999911,248575.354499975,364868.277399917,269146.037300001,265571.8719,272427.571699955,366830.49079997,275687.672599917,NA,NA,NA,NA,NA,316686.624799971,182383.198399912,246121.950799949,361921.19839997,272798.07619995,316596.738799941,316543.384099961,367125.843699905,12499.2710999213,367985.742399935,12499.2928999709,367677.43089993,182382.400000002,281190.394699923,281156.964099966,13238.5096999351,220659.171599895,NA,130019.079099991,28,89669.8660998372,30,0,-5,1,23,"Germanistik und Romanistik mit Lehramtsoption",5,3,3,3,3,3
93.5483870967742,96,2910.23077096249,"l","accuracy","ut2000we","1","o","a","1","0","0",60,3,700,"Tue Mar 28 14:21:08 2023",2,"eher schwer","accuracy","Experiment.osexp","Bild_s2_o_17.png",1080,"we",2000,"ut","orangene","C:/Users/steff/Documents/Universität/Master Psychologie/SS 2022/Masterarbeit/Experiment/subject-8.csv",0,0,0,"a",115,115,"a","a",547.287800000049,547.287800000049,8,NA,369675.213599927,316596.8077,182383.381299907,281123.376599979,370223.226299975,369367.389199906,16143.7195999315,281194.596399902,NA,12499.1658999352,NA,276128.168299911,369374.637999921,368826.39079995,361921.270599938,272798.147199908,316693.554700003,246129.113699892,13254.8427999718,47911.5084999939,60324.6155999368,78023.608099902,113558.874899987,119907.357899938,316693.68799997,370223.293999908,319327.088999911,248575.354499975,364868.277399917,269146.037300001,265571.8719,272427.571699955,368525.652299984,275687.672599917,NA,NA,NA,NA,NA,316686.624799971,182383.198399912,246121.950799949,361921.19839997,272798.07619995,316596.738799941,316543.384099961,368821.018599905,12499.2710999213,369675.291399937,12499.2928999709,369367.310200003,182382.400000002,281190.394699923,281156.964099966,13238.5096999351,220659.171599895,NA,130019.079099991,29,90217.1538998373,31,0,-5,1,23,"Germanistik und Romanistik mit Lehramtsoption",5,3,3,3,3,3
93.75,96,2843.91068749392,"l","accuracy","ut2000we","1","o","a","1","0","0",61,3,700,"Tue Mar 28 14:21:08 2023",2,"eher schwer","accuracy","Experiment.osexp","Bild_s2_o_24.png",1080,"we",2000,"ut","orangene","C:/Users/steff/Documents/Universität/Master Psychologie/SS 2022/Masterarbeit/Experiment/subject-8.csv",0,0,0,"a",120,120,"a","a",787.988099968061,787.988099968061,8,NA,371386.518199928,316596.8077,182383.381299907,281123.376599979,372175.283699995,371078.818199923,16143.7195999315,281194.596399902,NA,12499.1658999352,NA,276128.168299911,371085.912699928,370538.589300006,361921.270599938,272798.147199908,316693.554700003,246129.113699892,13254.8427999718,47911.5084999939,60324.6155999368,78023.608099902,113558.874899987,119907.357899938,316693.68799997,372175.35419995,319327.088999911,248575.354499975,364868.277399917,269146.037300001,265571.8719,272427.571699955,370238.326199935,275687.672599917,NA,NA,NA,NA,NA,316686.624799971,182383.198399912,246121.950799949,361921.19839997,272798.07619995,316596.738799941,316543.384099961,370533.378099906,12499.2710999213,371386.599099962,12499.2928999709,371078.739499906,182382.400000002,281190.394699923,281156.964099966,13238.5096999351,220659.171599895,NA,130019.079099991,30,91005.1419998054,32,0,-5,1,23,"Germanistik und Romanistik mit Lehramtsoption",5,3,3,3,3,3
93.9393939393939,96,2774.84410302361,"l","accuracy","ut2000we","1","b","l","1","0","0",62,3,700,"Tue Mar 28 14:21:08 2023",2,"eher schwer","accuracy","Experiment.osexp","Bild_s2_b_3.png",1080,"we",2000,"ut","orangene","C:/Users/steff/Documents/Universität/Master Psychologie/SS 2022/Masterarbeit/Experiment/subject-8.csv",0,0,0,"a",125,125,"l","l",564.713399973698,564.713399973698,8,NA,373337.772800005,316596.8077,182383.381299907,281123.376599979,373903.517599916,373029.925699928,16143.7195999315,281194.596399902,NA,12499.1658999352,NA,276128.168299911,373037.27239999,372496.893899981,361921.270599938,272798.147199908,316693.554700003,246129.113699892,13254.8427999718,47911.5084999939,60324.6155999368,78023.608099902,113558.874899987,119907.357899938,316693.68799997,373903.585499967,319327.088999911,248575.354499975,364868.277399917,269146.037300001,265571.8719,272427.571699955,372196.558899945,275687.672599917,NA,NA,NA,NA,NA,316686.624799971,182383.198399912,246121.950799949,361921.19839997,272798.07619995,316596.738799941,316543.384099961,372491.534199915,12499.2710999213,373337.860299973,12499.2928999709,373029.848899925,182382.400000002,281190.394699923,281156.964099966,13238.5096999351,220659.171599895,NA,130019.079099991,31,91569.855399779,33,0,-5,1,23,"Germanistik und Romanistik mit Lehramtsoption",5,3,3,3,3,3
94.1176470588235,96,2711.92634116982,"l","accuracy","ut2000we","1","o","a","1","0","0",63,3,700,"Tue Mar 28 14:21:08 2023",2,"eher schwer","accuracy","Experiment.osexp","Bild_s2_o_8.png",1080,"we",2000,"ut","orangene","C:/Users/steff/Documents/Universität/Master Psychologie/SS 2022/Masterarbeit/Experiment/subject-8.csv",0,0,0,"a",130,130,"a","a",635.640199994668,635.640199994668,8,NA,375074.860999943,316596.8077,182383.381299907,281123.376599979,375711.422499968,374767.038199934,16143.7195999315,281194.596399902,NA,12499.1658999352,NA,276128.168299911,374774.312199908,374227.992499946,361921.270599938,272798.147199908,316693.554700003,246129.113699892,13254.8427999718,47911.5084999939,60324.6155999368,78023.608099902,113558.874899987,119907.357899938,316693.68799997,375711.492899922,319327.088999911,248575.354499975,364868.277399917,269146.037300001,265571.8719,272427.571699955,373927.136799903,275687.672599917,NA,NA,NA,NA,NA,316686.624799971,182383.198399912,246121.950799949,361921.19839997,272798.07619995,316596.738799941,316543.384099961,374222.627699957,12499.2710999213,375074.939299957,12499.2928999709,374766.960399924,182382.400000002,281190.394699923,281156.964099966,13238.5096999351,220659.171599895,NA,130019.079099991,32,92205.4955997737,34,0,-5,1,23,"Germanistik und Romanistik mit Lehramtsoption",5,3,3,3,3,3
94.2857142857143,96,2647.84674856679,"l","accuracy","ut2000we","1","b","l","1","0","0",64,3,700,"Tue Mar 28 14:21:08 2023",1,"eher leicht","accuracy","Experiment.osexp","Bild_s3_b_22.png",1080,"we",2000,"ut","orangene","C:/Users/steff/Documents/Universität/Master Psychologie/SS 2022/Masterarbeit/Experiment/subject-8.csv",0,0,0,"a",135,135,"l","l",469.140600063838,469.140600063838,8,NA,376921.211799956,316596.8077,182383.381299907,281123.376599979,377391.290299944,376613.331999979,16143.7195999315,281194.596399902,NA,12499.1658999352,NA,276128.168299911,376620.599899907,376042.682699975,376114.173199981,272798.147199908,316693.554700003,246129.113699892,13254.8427999718,47911.5084999939,60324.6155999368,78023.608099902,113558.874899987,119907.357899938,316693.68799997,377391.361199901,319327.088999911,248575.354499975,364868.277399917,269146.037300001,265571.8719,272427.571699955,375741.992699914,275687.672599917,NA,NA,NA,NA,NA,316686.624799971,182383.198399912,246121.950799949,376114.100200008,272798.07619995,316596.738799941,316543.384099961,376037.308699917,12499.2710999213,376921.390299918,12499.2928999709,376613.25309996,182382.400000002,281190.394699923,281156.964099966,13238.5096999351,220659.171599895,NA,130019.079099991,33,92674.6361998376,35,0,-5,1,23,"Germanistik und Romanistik mit Lehramtsoption",5,3,3,3,3,3
94.4444444444444,96,2589.33066388514,"l","accuracy","ut2000we","1","b","l","1","0","0",65,3,700,"Tue Mar 28 14:21:08 2023",1,"eher leicht","accuracy","Experiment.osexp","Bild_s3_b_8.png",1080,"we",2000,"ut","orangene","C:/Users/steff/Documents/Universität/Master Psychologie/SS 2022/Masterarbeit/Experiment/subject-8.csv",0,0,0,"a",140,140,"l","l",541.267700027674,541.267700027674,8,NA,378561.220699921,316596.8077,182383.381299907,281123.376599979,379103.206499945,378253.104000003,16143.7195999315,281194.596399902,NA,12499.1658999352,NA,276128.168299911,378260.104099987,377719.247899949,376114.173199981,272798.147199908,316693.554700003,246129.113699892,13254.8427999718,47911.5084999939,60324.6155999368,78023.608099902,113558.874899987,119907.357899938,316693.68799997,379103.274299996,319327.088999911,248575.354499975,364868.277399917,269146.037300001,265571.8719,272427.571699955,377418.879000004,275687.672599917,NA,NA,NA,NA,NA,316686.624799971,182383.198399912,246121.950799949,376114.100200008,272798.07619995,316596.738799941,316543.384099961,377713.865499943,12499.2710999213,378561.303299968,12499.2928999709,378253.022199962,182382.400000002,281190.394699923,281156.964099966,13238.5096999351,220659.171599895,NA,130019.079099991,34,93215.9038998652,36,0,-5,1,23,"Germanistik und Romanistik mit Lehramtsoption",5,3,3,3,3,3
94.5945945945946,96,2530.57434053689,"l","accuracy","ut2000we","1","b","l","1","0","0",66,3,700,"Tue Mar 28 14:21:08 2023",1,"eher leicht","accuracy","Experiment.osexp","Bild_s3_b_21.png",1080,"we",2000,"ut","orangene","C:/Users/steff/Documents/Universität/Master Psychologie/SS 2022/Masterarbeit/Experiment/subject-8.csv",0,0,0,"a",145,145,"l","l",415.346699999645,415.346699999645,8,NA,380271.15159994,316596.8077,182383.381299907,281123.376599979,380687.377099996,379962.948299944,16143.7195999315,281194.596399902,NA,12499.1658999352,NA,276128.168299911,379970.206399914,379425.485899905,376114.173199981,272798.147199908,316693.554700003,246129.113699892,13254.8427999718,47911.5084999939,60324.6155999368,78023.608099902,113558.874899987,119907.357899938,316693.68799997,380687.448599958,319327.088999911,248575.354499975,364868.277399917,269146.037300001,265571.8719,272427.571699955,379125.037299935,275687.672599917,NA,NA,NA,NA,NA,316686.624799971,182383.198399912,246121.950799949,376114.100200008,272798.07619995,316596.738799941,316543.384099961,379420.222799992,12499.2710999213,380271.234799991,12499.2928999709,379962.869399926,182382.400000002,281190.394699923,281156.964099966,13238.5096999351,220659.171599895,NA,130019.079099991,35,93631.2505998649,37,0,-5,1,23,"Germanistik und Romanistik mit Lehramtsoption",5,3,3,3,3,3
94.7368421052632,96,2479.8817631519,"l","accuracy","ut2000we","1","o","a","1","0","0",67,3,700,"Tue Mar 28 14:21:08 2023",1,"eher leicht","accuracy","Experiment.osexp","Bild_s3_o_6.png",1080,"we",2000,"ut","orangene","C:/Users/steff/Documents/Universität/Master Psychologie/SS 2022/Masterarbeit/Experiment/subject-8.csv",0,0,0,"a",150,150,"a","a",604.256399907172,604.256399907172,8,NA,381858.126999927,316596.8077,182383.381299907,281123.376599979,382463.347199955,381550.103599904,16143.7195999315,281194.596399902,NA,12499.1658999352,NA,276128.168299911,381557.491699932,381017.403799924,376114.173199981,272798.147199908,316693.554700003,246129.113699892,13254.8427999718,47911.5084999939,60324.6155999368,78023.608099902,113558.874899987,119907.357899938,316693.68799997,382463.418899919,319327.088999911,248575.354499975,364868.277399917,269146.037300001,265571.8719,272427.571699955,380717.210899922,275687.672599917,NA,NA,NA,NA,NA,316686.624799971,182383.198399912,246121.950799949,376114.100200008,272798.07619995,316596.738799941,316543.384099961,381012.128399918,12499.2710999213,381858.304900001,12499.2928999709,381550.025799894,182382.400000002,281190.394699923,281156.964099966,13238.5096999351,220659.171599895,NA,130019.079099991,36,94235.506999772,38,0,-5,1,23,"Germanistik und Romanistik mit Lehramtsoption",5,3,3,3,3,3
94.8717948717949,96,2433.28388717372,"l","accuracy","ut2000we","1","b","l","1","0","0",68,3,700,"Tue Mar 28 14:21:08 2023",1,"eher leicht","accuracy","Experiment.osexp","Bild_s3_b_23.png",1080,"we",2000,"ut","orangene","C:/Users/steff/Documents/Universität/Master Psychologie/SS 2022/Masterarbeit/Experiment/subject-8.csv",0,0,0,"a",155,155,"l","l",662.564600002952,662.564600002952,8,NA,383639.823499951,316596.8077,182383.381299907,281123.376599979,384303.153499961,383328.860699898,16143.7195999315,281194.596399902,NA,12499.1658999352,NA,276128.168299911,383336.146599962,382795.033899951,376114.173199981,272798.147199908,316693.554700003,246129.113699892,13254.8427999718,47911.5084999939,60324.6155999368,78023.608099902,113558.874899987,119907.357899938,316693.68799997,384303.222999908,319327.088999911,248575.354499975,364868.277399917,269146.037300001,265571.8719,272427.571699955,382494.301999919,275687.672599917,NA,NA,NA,NA,NA,316686.624799971,182383.198399912,246121.950799949,376114.100200008,272798.07619995,316596.738799941,316543.384099961,382789.62419997,12499.2710999213,383639.978599967,12499.2928999709,383328.781799995,182382.400000002,281190.394699923,281156.964099966,13238.5096999351,220659.171599895,NA,130019.079099991,37,94898.071599775,39,0,-5,1,23,"Germanistik und Romanistik mit Lehramtsoption",5,3,3,3,3,3
95,96,2384.13303999405,"l","accuracy","ut2000we","1","b","l","1","0","0",69,3,700,"Tue Mar 28 14:21:08 2023",1,"eher leicht","accuracy","Experiment.osexp","Bild_s3_b_6.png",1080,"we",2000,"ut","orangene","C:/Users/steff/Documents/Universität/Master Psychologie/SS 2022/Masterarbeit/Experiment/subject-8.csv",0,0,0,"a",160,160,"l","l",467.249999986961,467.249999986961,8,NA,385467.241399921,316596.8077,182383.381299907,281123.376599979,385935.265399981,385159.488799982,16143.7195999315,281194.596399902,NA,12499.1658999352,NA,276128.168299911,385166.684199939,384619.195699925,376114.173199981,272798.147199908,316693.554700003,246129.113699892,13254.8427999718,47911.5084999939,60324.6155999368,78023.608099902,113558.874899987,119907.357899938,316693.68799997,385935.334899928,319327.088999911,248575.354499975,364868.277399917,269146.037300001,265571.8719,272427.571699955,384318.147699931,275687.672599917,NA,NA,NA,NA,NA,316686.624799971,182383.198399912,246121.950799949,376114.100200008,272798.07619995,316596.738799941,316543.384099961,384613.843899919,12499.2710999213,385467.322099954,12499.2928999709,385159.40949996,182382.400000002,281190.394699923,281156.964099966,13238.5096999351,220659.171599895,NA,130019.079099991,38,95365.321599762,40,0,-5,1,23,"Germanistik und Romanistik mit Lehramtsoption",5,3,3,3,3,3
95.1219512195122,96,2338.3944048745,"l","accuracy","ut2000we","1","o","a","1","0","0",70,3,700,"Tue Mar 28 14:21:08 2023",1,"eher leicht","accuracy","Experiment.osexp","Bild_s3_o_23.png",1080,"we",2000,"ut","orangene","C:/Users/steff/Documents/Universität/Master Psychologie/SS 2022/Masterarbeit/Experiment/subject-8.csv",0,0,0,"a",165,165,"a","a",508.849000092596,508.849000092596,8,NA,387105.665499927,316596.8077,182383.381299907,281123.376599979,387615.454099956,386797.646499937,16143.7195999315,281194.596399902,NA,12499.1658999352,NA,276128.168299911,386804.567599902,386266.164999921,376114.173199981,272798.147199908,316693.554700003,246129.113699892,13254.8427999718,47911.5084999939,60324.6155999368,78023.608099902,113558.874899987,119907.357899938,316693.68799997,387615.522699896,319327.088999911,248575.354499975,364868.277399917,269146.037300001,265571.8719,272427.571699955,385965.665499913,275687.672599917,NA,NA,NA,NA,NA,316686.624799971,182383.198399912,246121.950799949,376114.100200008,272798.07619995,316596.738799941,316543.384099961,386260.758499964,12499.2710999213,387105.7537999,12499.2928999709,386797.511699959,182382.400000002,281190.394699923,281156.964099966,13238.5096999351,220659.171599895,NA,130019.079099991,39,95874.1705998546,41,0,-5,1,23,"Germanistik und Romanistik mit Lehramtsoption",5,3,3,3,3,3
95.2380952380952,96,2295.5415952352,"l","accuracy","ut2000we","1","o","a","1","0","0",71,3,700,"Tue Mar 28 14:21:08 2023",1,"eher leicht","accuracy","Experiment.osexp","Bild_s3_o_1.png",1080,"we",2000,"ut","orangene","C:/Users/steff/Documents/Universität/Master Psychologie/SS 2022/Masterarbeit/Experiment/subject-8.csv",0,0,0,"a",170,170,"a","a",538.576400023885,538.576400023885,8,NA,388787.777599995,316596.8077,182383.381299907,281123.376599979,389327.372099971,388479.951399961,16143.7195999315,281194.596399902,NA,12499.1658999352,NA,276128.168299911,388486.883100006,387941.496799933,376114.173199981,272798.147199908,316693.554700003,246129.113699892,13254.8427999718,47911.5084999939,60324.6155999368,78023.608099902,113558.874899987,119907.357899938,316693.68799997,389327.442099922,319327.088999911,248575.354499975,364868.277399917,269146.037300001,265571.8719,272427.571699955,387640.77659999,275687.672599917,NA,NA,NA,NA,NA,316686.624799971,182383.198399912,246121.950799949,376114.100200008,272798.07619995,316596.738799941,316543.384099961,387936.1720999,12499.2710999213,388787.95649996,12499.2928999709,388479.871599935,182382.400000002,281190.394699923,281156.964099966,13238.5096999351,220659.171599895,NA,130019.079099991,40,96412.7469998784,42,0,-5,1,23,"Germanistik und Romanistik mit Lehramtsoption",5,3,3,3,3,3
95.3488372093023,96,2254.19673953357,"l","accuracy","ut2000we","1","o","a","1","0","0",72,3,700,"Tue Mar 28 14:21:08 2023",0,"sehr leicht","accuracy","Experiment.osexp","Bild_s4_o_10.png",1080,"we",2000,"ut","orangene","C:/Users/steff/Documents/Universität/Master Psychologie/SS 2022/Masterarbeit/Experiment/subject-8.csv",0,0,0,"a",175,175,"a","a",517.712800065055,517.712800065055,8,NA,390520.788099966,316596.8077,182383.381299907,281123.376599979,391039.364599972,390212.911599898,16143.7195999315,281194.596399902,NA,12499.1658999352,NA,276128.168299911,390219.806499896,389644.859199994,389717.258999939,272798.147199908,316693.554700003,246129.113699892,13254.8427999718,47911.5084999939,60324.6155999368,78023.608099902,113558.874899987,119907.357899938,316693.68799997,391039.432699909,319327.088999911,248575.354499975,364868.277399917,269146.037300001,265571.8719,272427.571699955,389343.944199965,275687.672599917,NA,NA,NA,NA,NA,316686.624799971,182383.198399912,246121.950799949,389717.186099966,272798.07619995,316596.738799941,316543.384099961,389639.459499973,12499.2710999213,390520.870899898,12499.2928999709,390212.832799996,182382.400000002,281190.394699923,281156.964099966,13238.5096999351,220659.171599895,NA,130019.079099991,41,96930.4597999435,43,0,-5,1,23,"Germanistik und Romanistik mit Lehramtsoption",5,3,3,3,3,3
95.4545454545454,96,2215.24766136215,"l","accuracy","ut2000we","1","b","l","1","0","0",73,3,700,"Tue Mar 28 14:21:08 2023",0,"sehr leicht","accuracy","Experiment.osexp","Bild_s4_b_4.png",1080,"we",2000,"ut","orangene","C:/Users/steff/Documents/Universität/Master Psychologie/SS 2022/Masterarbeit/Experiment/subject-8.csv",0,0,0,"a",180,180,"l","l",540.437299991027,540.437299991027,8,NA,392209.922899958,316596.8077,182383.381299907,281123.376599979,392751.194199896,391902.114899945,16143.7195999315,281194.596399902,NA,12499.1658999352,NA,276128.168299911,391909.264199901,391365.974199958,389717.258999939,272798.147199908,316693.554700003,246129.113699892,13254.8427999718,47911.5084999939,60324.6155999368,78023.608099902,113558.874899987,119907.357899938,316693.68799997,392751.262499951,319327.088999911,248575.354499975,364868.277399917,269146.037300001,265571.8719,272427.571699955,391065.550399944,275687.672599917,NA,NA,NA,NA,NA,316686.624799971,182383.198399912,246121.950799949,389717.186099966,272798.07619995,316596.738799941,316543.384099961,391360.661599902,12499.2710999213,392210.114599904,12499.2928999709,391902.035199921,182382.400000002,281190.394699923,281156.964099966,13238.5096999351,220659.171599895,NA,130019.079099991,42,97470.8970999345,44,0,-5,1,23,"Germanistik und Romanistik mit Lehramtsoption",5,3,3,3,3,3
95.5555555555556,96,2176.52558444275,"l","accuracy","ut2000we","1","b","l","1","0","0",74,3,700,"Tue Mar 28 14:21:08 2023",0,"sehr leicht","accuracy","Experiment.osexp","Bild_s4_b_18.png",1080,"we",2000,"ut","orangene","C:/Users/steff/Documents/Universität/Master Psychologie/SS 2022/Masterarbeit/Experiment/subject-8.csv",0,0,0,"a",185,185,"l","l",472.75419998914,472.75419998914,8,NA,393925.632599974,316596.8077,182383.381299907,281123.376599979,394399.230499985,393616.977599915,16143.7195999315,281194.596399902,NA,12499.1658999352,NA,276128.168299911,393624.096399988,393082.135899924,389717.258999939,272798.147199908,316693.554700003,246129.113699892,13254.8427999718,47911.5084999939,60324.6155999368,78023.608099902,113558.874899987,119907.357899938,316693.68799997,394399.299599929,319327.088999911,248575.354499975,364868.277399917,269146.037300001,265571.8719,272427.571699955,392781.266999897,275687.672599917,NA,NA,NA,NA,NA,316686.624799971,182383.198399912,246121.950799949,389717.186099966,272798.07619995,316596.738799941,316543.384099961,393076.687199995,12499.2710999213,393925.802099984,12499.2928999709,393616.899599903,182382.400000002,281190.394699923,281156.964099966,13238.5096999351,220659.171599895,NA,130019.079099991,43,97943.6512999237,45,0,-5,1,23,"Germanistik und Romanistik mit Lehramtsoption",5,3,3,3,3,3
95.6521739130435,96,2140.09166956353,"l","accuracy","ut2000we","1","b","l","1","0","0",75,3,700,"Tue Mar 28 14:21:08 2023",0,"sehr leicht","accuracy","Experiment.osexp","Bild_s4_b_9.png",1080,"we",2000,"ut","orangene","C:/Users/steff/Documents/Universität/Master Psychologie/SS 2022/Masterarbeit/Experiment/subject-8.csv",0,0,0,"a",190,190,"l","l",500.565499998629,500.565499998629,8,NA,395561.782400007,316596.8077,182383.381299907,281123.376599979,396063.45269992,395253.757599974,16143.7195999315,281194.596399902,NA,12499.1658999352,NA,276128.168299911,395261.043499922,394727.590099908,389717.258999939,272798.147199908,316693.554700003,246129.113699892,13254.8427999718,47911.5084999939,60324.6155999368,78023.608099902,113558.874899987,119907.357899938,316693.68799997,396063.524500001,319327.088999911,248575.354499975,364868.277399917,269146.037300001,265571.8719,272427.571699955,394427.006099955,275687.672599917,NA,NA,NA,NA,NA,316686.624799971,182383.198399912,246121.950799949,389717.186099966,272798.07619995,316596.738799941,316543.384099961,394722.195699927,12499.2710999213,395561.967399903,12499.2928999709,395253.67799995,182382.400000002,281190.394699923,281156.964099966,13238.5096999351,220659.171599895,NA,130019.079099991,44,98444.2167999223,46,0,-5,1,23,"Germanistik und Romanistik mit Lehramtsoption",5,3,3,3,3,3
95.7446808510638,96,2108.06994255077,"l","accuracy","ut2000we","1","o","a","1","0","0",76,3,700,"Tue Mar 28 14:21:08 2023",0,"sehr leicht","accuracy","Experiment.osexp","Bild_s4_o_14.png",1080,"we",2000,"ut","orangene","C:/Users/steff/Documents/Universität/Master Psychologie/SS 2022/Masterarbeit/Experiment/subject-8.csv",0,0,0,"a",195,195,"a","a",635.070499964058,635.070499964058,8,NA,397235.403199913,316596.8077,182383.381299907,281123.376599979,397871.463299962,396927.517100004,16143.7195999315,281194.596399902,NA,12499.1658999352,NA,276128.168299911,396935.025099898,396379.033199977,389717.258999939,272798.147199908,316693.554700003,246129.113699892,13254.8427999718,47911.5084999939,60324.6155999368,78023.608099902,113558.874899987,119907.357899938,316693.68799997,397871.533999918,319327.088999911,248575.354499975,364868.277399917,269146.037300001,265571.8719,272427.571699955,396078.177099931,275687.672599917,NA,NA,NA,NA,NA,316686.624799971,182383.198399912,246121.950799949,389717.186099966,272798.07619995,316596.738799941,316543.384099961,396373.700099997,12499.2710999213,397235.486999969,12499.2928999709,396927.379900008,182382.400000002,281190.394699923,281156.964099966,13238.5096999351,220659.171599895,NA,130019.079099991,45,99079.2872998864,47,0,-5,1,23,"Germanistik und Romanistik mit Lehramtsoption",5,3,3,3,3,3
95.8333333333333,96,2079.23810624925,"l","accuracy","ut2000we","1","b","l","1","0","0",77,3,700,"Tue Mar 28 14:21:08 2023",0,"sehr leicht","accuracy","Experiment.osexp","Bild_s4_b_23.png",1080,"we",2000,"ut","orangene","C:/Users/steff/Documents/Universität/Master Psychologie/SS 2022/Masterarbeit/Experiment/subject-8.csv",0,0,0,"a",200,200,"l","l",724.141800077632,724.141800077632,8,NA,399050.268099993,316596.8077,182383.381299907,281123.376599979,399775.380699895,398742.103899946,16143.7195999315,281194.596399902,NA,12499.1658999352,NA,276128.168299911,398749.654699932,398202.035299968,389717.258999939,272798.147199908,316693.554700003,246129.113699892,13254.8427999718,47911.5084999939,60324.6155999368,78023.608099902,113558.874899987,119907.357899938,316693.68799997,399775.452299975,319327.088999911,248575.354499975,364868.277399917,269146.037300001,265571.8719,272427.571699955,397901.561799925,275687.672599917,NA,NA,NA,NA,NA,316686.624799971,182383.198399912,246121.950799949,389717.186099966,272798.07619995,316596.738799941,316543.384099961,398196.6753999,12499.2710999213,399050.347999902,12499.2928999709,398742.022199905,182382.400000002,281190.394699923,281156.964099966,13238.5096999351,220659.171599895,NA,130019.079099991,46,99803.429099964,48,0,-5,1,23,"Germanistik und Romanistik mit Lehramtsoption",5,3,3,3,3,3
