"accuracy","anzahl_gruppen","avg_rt","blauetaste","block","code","correct","correct_colour","correct_response","correct1","correct2","correct3","count_bildstimulus_3_1","count_block","cutoff","datetime","difficulty","difficulty_f","erstebedingung","experiment_file","filename","height","id_geburtsort","id_jahr","id_vater","linketaste","logfile","loose1","loose2","loose3","orangenetaste","punkte1","punkteimblock","response","response_tasteresponse_3_1","response_time","response_time_tasteresponse_3_1","subject_nr","time_bildershuffle","time_bildstimulus_3_1","time_block","time_block_tut","time_blockwerte_zuruecksetzten","time_cutoff_werte_und_punkte_3_1","time_definecorrectcolour_3_1","time_eingabemaske_kuerzel_python","time_ende_tutorial_1","time_ende_experimentierungsphase","time_experiment","time_feedback_serie","time_feedback_tutorial","time_fixationcross_3_1","time_grauesbild_3_1","time_gruppe_block","time_gruppe_tutorial","time_instruktionen_block","time_instruktionen_tutorial_1","time_introduction_1","time_introduction_2_1","time_introduction_3_punkte","time_introduction_3_speed","time_introduction_4_accuracy","time_introduction_5_feedback","time_leertaste_fuer_naechsten_bildschirm","time_logger_3_1","time_loop_block","time_loop_block_tut","time_minifeedbacknegativ_acc","time_minifeedbacknegativ_speed_slow","time_minifeedbacknegativ_speed_slowandwrong","time_minifeedbacknegativ_speed_wrong","time_minifeedbackpositiv_acc","time_minifeedbackpositiv_speed","time_new_inline_script","time_pause_zwischen_serie_1","time_pause_zwischen_serie_2","time_reset_feedback","time_reset_feedback_1","time_sequenz_block","time_sequenz_block_tut","time_sequenz_block_tut_1","time_sequenz_gruppe","time_sequenz_gruppe_tut","time_sequenz_serie","time_serie","time_set_to_zero","time_start","time_tasteresponse_3_1","time_testloopprepareglitchtutorial","time_trial_3_1","time_tutorial","time_tutorial_ende","time_tutorial_wiederholungscheck","time_vorgeplaenkel","time_warnhinweis_3sek","time_warnhinweis_5sek","time_warnung_tutorial_1","total_correct","total_response_time","total_responses","tutorial","tutorialpunkte","geschlecht","alter","studiengang","bildungsabschluss","haendig1","haendig2","haendig3","haendig4","haendig_mean"
88.8888888888889,96,75999.0612999924,"l","accuracy","ga1999ma","0","b","l","0","0","0",0,1,700,"Tue Mar 21 12:01:48 2023",3,"sehr schwer","speed","Experiment.osexp","Bild_s1_b_6.png",1080,"ma",1999,"ga","orangene","C:/Users/steff/Documents/Universität/Master Psychologie/SS 2022/Masterarbeit/Experiment/subject-3.csv",1,0,0,"a",-10,-10,"a","a",969.194999954198,969.194999954198,3,184380.88740001,185218.9717,NA,178169.696199999,NA,186188.933500031,184910.843500053,24637.3964000377,NA,NA,4582.87199999904,NA,NA,184917.765300022,NA,NA,184381.911300006,NA,178263.488800032,5333.81060004467,43479.0046000271,56882.1391999954,71493.1514000054,115604.592400021,129536.731900007,178263.59290001,186189.002500032,NA,184380.910000007,NA,NA,NA,NA,NA,NA,NA,NA,NA,NA,NA,NA,178169.511400047,178256.195300026,NA,184381.866000011,NA,NA,NA,4582.99880003324,185219.061200041,4583.02520000143,184910.644899996,178168.716400047,NA,NA,5317.44190002792,NA,NA,138128.651300038,8,683991.551699932,9,1,0,1,23,"Europäische Kunstgeschichte",5,3,2,3,3,2.75
80,96,68503.8743399957,"l","accuracy","ga1999ma","0","o","a","0","0","0",1,1,700,"Tue Mar 21 12:01:48 2023",3,"sehr schwer","speed","Experiment.osexp","Bild_s1_o_20.png",1080,"ma",1999,"ga","orangene","C:/Users/steff/Documents/Universität/Master Psychologie/SS 2022/Masterarbeit/Experiment/subject-3.csv",1,0,0,"a",-20,-20,"l","l",1047.191700025,1047.191700025,3,184380.88740001,187364.966100024,NA,178169.696199999,NA,188412.826400017,187056.916100031,24637.3964000377,NA,NA,4582.87199999904,NA,NA,187064.281200001,186525.821300049,NA,184381.911300006,NA,178263.488800032,5333.81060004467,43479.0046000271,56882.1391999954,71493.1514000054,115604.592400021,129536.731900007,178263.59290001,188412.895700021,NA,184380.910000007,186225.18020001,NA,NA,NA,NA,NA,NA,NA,NA,NA,NA,NA,178169.511400047,178256.195300026,NA,184381.866000011,NA,NA,186520.421400026,4582.99880003324,187365.072800021,4583.02520000143,187056.832200033,178168.716400047,NA,NA,5317.44190002792,NA,NA,138128.651300038,8,685038.743399957,10,1,0,1,23,"Europäische Kunstgeschichte",5,3,2,3,3,2.75
81.8181818181818,96,62368.0719727259,"l","accuracy","ga1999ma","1","o","a","1","0","0",2,1,700,"Tue Mar 21 12:01:48 2023",2,"eher schwer","speed","Experiment.osexp","Bild_s2_o_6.png",1080,"ma",1999,"ga","orangene","C:/Users/steff/Documents/Universität/Master Psychologie/SS 2022/Masterarbeit/Experiment/subject-3.csv",0,0,0,"a",-15,-15,"a","a",1010.04830002785,1010.04830002785,3,184380.88740001,189626.033500012,NA,178169.696199999,NA,190636.685100035,189318.129400024,24637.3964000377,NA,NA,4582.87199999904,NA,NA,189325.300300028,188742.672100023,NA,188821.620700008,NA,178263.488800032,5333.81060004467,43479.0046000271,56882.1391999954,71493.1514000054,115604.592400021,129536.731900007,178263.59290001,190636.759100016,NA,184380.910000007,188442.18860002,NA,NA,NA,NA,NA,NA,NA,NA,NA,NA,NA,178169.511400047,178256.195300026,NA,188821.545400016,NA,NA,188737.279499997,4582.99880003324,189626.216600009,4583.02520000143,189318.049399997,178168.716400047,NA,NA,5317.44190002792,NA,NA,138128.651300038,9,686048.791699985,11,1,0,1,23,"Europäische Kunstgeschichte",5,3,2,3,3,2.75
83.3333333333333,96,57243.1168416661,"l","accuracy","ga1999ma","1","b","l","1","0","0",3,1,700,"Tue Mar 21 12:01:48 2023",2,"eher schwer","speed","Experiment.osexp","Bild_s2_b_4.png",1080,"ma",1999,"ga","orangene","C:/Users/steff/Documents/Universität/Master Psychologie/SS 2022/Masterarbeit/Experiment/subject-3.csv",0,0,0,"a",-10,-10,"l","l",868.610400008038,868.610400008038,3,184380.88740001,191799.46410004,NA,178169.696199999,NA,192668.828000023,191491.441800026,24637.3964000377,NA,NA,4582.87199999904,NA,NA,191498.666000029,190954.970500025,NA,188821.620700008,NA,178263.488800032,5333.81060004467,43479.0046000271,56882.1391999954,71493.1514000054,115604.592400021,129536.731900007,178263.59290001,192668.897900032,NA,184380.910000007,188442.18860002,NA,NA,NA,190654.195300012,NA,NA,NA,NA,NA,NA,NA,178169.511400047,178256.195300026,NA,188821.545400016,NA,NA,190949.40490002,4582.99880003324,191799.653200025,4583.02520000143,191491.362000001,178168.716400047,NA,NA,5317.44190002792,NA,NA,138128.651300038,10,686917.402099993,12,1,0,1,23,"Europäische Kunstgeschichte",5,3,2,3,3,2.75
84.6153846153846,96,52906.7081846162,"l","accuracy","ga1999ma","1","o","a","1","0","0",4,1,700,"Tue Mar 21 12:01:48 2023",1,"eher leicht","speed","Experiment.osexp","Bild_s3_o_11.png",1080,"ma",1999,"ga","orangene","C:/Users/steff/Documents/Universität/Master Psychologie/SS 2022/Masterarbeit/Experiment/subject-3.csv",0,0,0,"a",-5,-5,"a","a",869.804300018586,869.804300018586,3,184380.88740001,193878.365200013,NA,178169.696199999,NA,194748.897500045,193570.531500038,24637.3964000377,NA,NA,4582.87199999904,NA,NA,193577.874600014,192999.648900004,NA,193074.411600013,NA,178263.488800032,5333.81060004467,43479.0046000271,56882.1391999954,71493.1514000054,115604.592400021,129536.731900007,178263.59290001,194748.972500034,NA,184380.910000007,188442.18860002,NA,NA,NA,192699.352500029,NA,NA,NA,NA,NA,NA,NA,178169.511400047,178256.195300026,NA,193074.338600039,NA,NA,192994.282800006,4582.99880003324,193878.451400029,4583.02520000143,193570.449499995,178168.716400047,NA,NA,5317.44190002792,NA,NA,138128.651300038,11,687787.206400011,13,1,0,1,23,"Europäische Kunstgeschichte",5,3,2,3,3,2.75
85.7142857142857,96,49170.5532928588,"l","accuracy","ga1999ma","1","b","l","1","0","0",5,1,700,"Tue Mar 21 12:01:48 2023",1,"eher leicht","speed","Experiment.osexp","Bild_s3_b_20.png",1080,"ma",1999,"ga","orangene","C:/Users/steff/Documents/Universität/Master Psychologie/SS 2022/Masterarbeit/Experiment/subject-3.csv",0,0,0,"a",0,0,"l","l",600.539700011723,600.539700011723,3,184380.88740001,195923.497500014,NA,178169.696199999,NA,196524.895900046,195615.980000002,24637.3964000377,NA,NA,4582.87199999904,NA,NA,195623.168900027,195070.823900052,NA,193074.411600013,NA,178263.488800032,5333.81060004467,43479.0046000271,56882.1391999954,71493.1514000054,115604.592400021,129536.731900007,178263.59290001,196524.968000012,NA,184380.910000007,188442.18860002,NA,NA,NA,194770.062500029,NA,NA,NA,NA,NA,NA,NA,178169.511400047,178256.195300026,NA,193074.338600039,NA,NA,195065.354800026,4582.99880003324,195923.675600032,4583.02520000143,195615.894900053,178168.716400047,NA,NA,5317.44190002792,NA,NA,138128.651300038,12,688387.746100023,14,1,0,1,23,"Europäische Kunstgeschichte",5,3,2,3,3,2.75
86.6666666666667,96,45943.5440533368,"l","accuracy","ga1999ma","1","b","l","1","0","0",6,1,700,"Tue Mar 21 12:01:48 2023",0,"sehr leicht","speed","Experiment.osexp","Bild_s4_b_9.png",1080,"ma",1999,"ga","orangene","C:/Users/steff/Documents/Universität/Master Psychologie/SS 2022/Masterarbeit/Experiment/subject-3.csv",0,0,0,"a",5,5,"l","l",765.414700028487,765.414700028487,3,184380.88740001,197742.662300006,NA,178169.696199999,NA,198508.865100041,197434.541900002,24637.3964000377,NA,NA,4582.87199999904,NA,NA,197441.687400045,196855.694600032,NA,196934.713600029,NA,178263.488800032,5333.81060004467,43479.0046000271,56882.1391999954,71493.1514000054,115604.592400021,129536.731900007,178263.59290001,198508.939700027,NA,184380.910000007,188442.18860002,NA,NA,NA,196555.087500019,NA,NA,NA,NA,NA,NA,NA,178169.511400047,178256.195300026,NA,196934.634500009,NA,NA,196850.283700041,4582.99880003324,197742.853500007,4583.02520000143,197434.463600046,178168.716400047,NA,NA,5317.44190002792,NA,NA,138128.651300038,13,689153.160800051,15,1,0,1,23,"Europäische Kunstgeschichte",5,3,2,3,3,2.75
87.5,96,43105.3055937555,"l","accuracy","ga1999ma","1","o","a","1","0","0",7,1,700,"Tue Mar 21 12:01:48 2023",0,"sehr leicht","speed","Experiment.osexp","Bild_s4_o_10.png",1080,"ma",1999,"ga","orangene","C:/Users/steff/Documents/Universität/Master Psychologie/SS 2022/Masterarbeit/Experiment/subject-3.csv",0,0,0,"a",10,10,"a","a",531.728700036183,531.728700036183,3,184380.88740001,199688.438900048,NA,178169.696199999,NA,200220.905199996,199380.285300023,24637.3964000377,NA,NA,4582.87199999904,NA,NA,199387.341200025,198845.20370001,NA,196934.713600029,NA,178263.488800032,5333.81060004467,43479.0046000271,56882.1391999954,71493.1514000054,115604.592400021,129536.731900007,178263.59290001,200220.9745,NA,184380.910000007,188442.18860002,NA,NA,NA,198544.958400016,NA,NA,NA,NA,NA,NA,NA,178169.511400047,178256.195300026,NA,196934.634500009,NA,NA,198839.880300045,4582.99880003324,199688.526500016,4583.02520000143,199380.204600049,178168.716400047,NA,NA,5317.44190002792,NA,NA,138128.651300038,14,689684.889500088,16,1,0,1,23,"Europäische Kunstgeschichte",5,3,2,3,3,2.75
88.2352941176471,96,40598.953970595,"l","accuracy","ga1999ma","1","b","l","1","0","0",8,1,700,"Tue Mar 21 12:01:48 2023",0,"sehr leicht","speed","Experiment.osexp","Bild_s4_b_2.png",1080,"ma",1999,"ga","orangene","C:/Users/steff/Documents/Universität/Master Psychologie/SS 2022/Masterarbeit/Experiment/subject-3.csv",0,0,0,"a",15,15,"l","l",497.328000026755,497.328000026755,3,184380.88740001,201418.7332,NA,178169.696199999,NA,201916.977700021,201111.346899997,24637.3964000377,NA,NA,4582.87199999904,NA,NA,201118.415500037,200536.255700048,NA,200613.443300012,NA,178263.488800032,5333.81060004467,43479.0046000271,56882.1391999954,71493.1514000054,115604.592400021,129536.731900007,178263.59290001,201917.046000017,NA,184380.910000007,188442.18860002,NA,NA,NA,200236.061700038,NA,NA,NA,NA,NA,NA,NA,178169.511400047,178256.195300026,NA,200613.370000036,NA,NA,200530.894100026,4582.99880003324,201418.904400023,4583.02520000143,201111.267600034,178168.716400047,NA,NA,5317.44190002792,NA,NA,138128.651300038,15,690182.217500114,17,1,0,1,23,"Europäische Kunstgeschichte",5,3,2,3,3,2.75
88.8888888888889,96,38373.3873166719,"l","accuracy","ga1999ma","1","b","l","1","0","0",9,1,700,"Tue Mar 21 12:01:48 2023",0,"sehr leicht","speed","Experiment.osexp","Bild_s4_b_24.png",1080,"ma",1999,"ga","orangene","C:/Users/steff/Documents/Universität/Master Psychologie/SS 2022/Masterarbeit/Experiment/subject-3.csv",0,0,0,"a",20,20,"l","l",538.754199980758,538.754199980758,3,184380.88740001,203089.413600042,NA,178169.696199999,NA,203628.87330004,202781.666200026,24637.3964000377,NA,NA,4582.87199999904,NA,NA,202788.881100016,202248.07120004,NA,200613.443300012,NA,178263.488800032,5333.81060004467,43479.0046000271,56882.1391999954,71493.1514000054,115604.592400021,129536.731900007,178263.59290001,203628.941600036,NA,184380.910000007,188442.18860002,NA,NA,NA,201947.592700017,NA,NA,NA,NA,NA,NA,NA,178169.511400047,178256.195300026,NA,200613.370000036,NA,NA,202242.716500012,4582.99880003324,203089.496200031,4583.02520000143,202781.585100049,178168.716400047,NA,NA,5317.44190002792,NA,NA,138128.651300038,16,690720.971700095,18,1,0,1,23,"Europäische Kunstgeschichte",5,3,2,3,3,2.75
89.4736842105263,96,36392.2113894797,"l","accuracy","ga1999ma","1","b","l","1","0","0",10,1,700,"Tue Mar 21 12:01:48 2023",1,"eher leicht","speed","Experiment.osexp","Bild_s3_b_14.png",1080,"ma",1999,"ga","orangene","C:/Users/steff/Documents/Universität/Master Psychologie/SS 2022/Masterarbeit/Experiment/subject-3.csv",0,0,0,"a",25,25,"l","l",731.044700019993,731.044700019993,3,184380.88740001,204833.11800001,NA,178169.696199999,NA,205564.821900043,204525.099600025,24637.3964000377,NA,NA,4582.87199999904,NA,NA,204532.025300025,203956.765500014,NA,204033.285000012,NA,178263.488800032,5333.81060004467,43479.0046000271,56882.1391999954,71493.1514000054,115604.592400021,129536.731900007,178263.59290001,205564.894400013,NA,184380.910000007,188442.18860002,NA,NA,NA,203656.310000049,NA,NA,NA,NA,NA,NA,NA,178169.511400047,178256.195300026,NA,204033.21220004,NA,NA,203951.593200036,4582.99880003324,204833.201500005,4583.02520000143,204525.020100002,178168.716400047,NA,NA,5317.44190002792,NA,NA,138128.651300038,17,691452.016400115,19,1,0,1,23,"Europäische Kunstgeschichte",5,3,2,3,3,2.75
90,96,34605.6637250062,"l","accuracy","ga1999ma","1","o","a","1","0","0",11,1,700,"Tue Mar 21 12:01:48 2023",1,"eher leicht","speed","Experiment.osexp","Bild_s3_o_7.png",1080,"ma",1999,"ga","orangene","C:/Users/steff/Documents/Universität/Master Psychologie/SS 2022/Masterarbeit/Experiment/subject-3.csv",0,0,0,"a",30,30,"a","a",661.258100008126,661.258100008126,3,184380.88740001,206726.758200035,NA,178169.696199999,NA,207388.873800053,206418.978200003,24637.3964000377,NA,NA,4582.87199999904,NA,NA,206425.840300042,205877.331199998,NA,204033.285000012,NA,178263.488800032,5333.81060004467,43479.0046000271,56882.1391999954,71493.1514000054,115604.592400021,129536.731900007,178263.59290001,207388.952100009,NA,184380.910000007,188442.18860002,NA,NA,NA,205576.559800014,NA,NA,NA,NA,NA,NA,NA,178169.511400047,178256.195300026,NA,204033.21220004,NA,NA,205871.98570004,4582.99880003324,206726.938300009,4583.02520000143,206418.894600007,178168.716400047,NA,NA,5317.44190002792,NA,NA,138128.651300038,18,692113.274500123,20,1,0,1,23,"Europäische Kunstgeschichte",5,3,2,3,3,2.75
90.4761904761905,96,32987.5814142925,"l","accuracy","ga1999ma","1","o","a","1","0","0",12,1,700,"Tue Mar 21 12:01:48 2023",2,"eher schwer","speed","Experiment.osexp","Bild_s2_o_8.png",1080,"ma",1999,"ga","orangene","C:/Users/steff/Documents/Universität/Master Psychologie/SS 2022/Masterarbeit/Experiment/subject-3.csv",0,0,0,"a",35,35,"a","a",625.93520001974,625.93520001974,3,184380.88740001,208602.088300046,NA,178169.696199999,NA,209228.938300046,208293.406000012,24637.3964000377,NA,NA,4582.87199999904,NA,NA,208300.591600011,207707.458500052,NA,207784.291800053,NA,178263.488800032,5333.81060004467,43479.0046000271,56882.1391999954,71493.1514000054,115604.592400021,129536.731900007,178263.59290001,209229.010400013,NA,184380.910000007,188442.18860002,NA,NA,NA,207407.346600026,NA,NA,NA,NA,NA,NA,NA,178169.511400047,178256.195300026,NA,207784.218000015,NA,NA,207701.999400044,4582.99880003324,208602.274400007,4583.02520000143,208293.255600031,178168.716400047,NA,NA,5317.44190002792,NA,NA,138128.651300038,19,692739.209700143,21,1,0,1,23,"Europäische Kunstgeschichte",5,3,2,3,3,2.75
90.9090909090909,96,31515.0073681884,"l","accuracy","ga1999ma","1","b","l","1","0","0",13,1,700,"Tue Mar 21 12:01:48 2023",2,"eher schwer","speed","Experiment.osexp","Bild_s2_b_19.png",1080,"ma",1999,"ga","orangene","C:/Users/steff/Documents/Universität/Master Psychologie/SS 2022/Masterarbeit/Experiment/subject-3.csv",0,0,0,"a",40,40,"l","l",590.952400001697,590.952400001697,3,184380.88740001,210397.178600018,NA,178169.696199999,NA,210988.862300001,210089.285099995,24637.3964000377,NA,NA,4582.87199999904,NA,NA,210096.180799999,209545.283800049,NA,207784.291800053,NA,178263.488800032,5333.81060004467,43479.0046000271,56882.1391999954,71493.1514000054,115604.592400021,129536.731900007,178263.59290001,210988.932000007,NA,184380.910000007,188442.18860002,NA,NA,NA,209244.385000027,NA,NA,NA,NA,NA,NA,NA,178169.511400047,178256.195300026,NA,207784.218000015,NA,NA,209539.918099996,4582.99880003324,210397.277700016,4583.02520000143,210089.207900048,178168.716400047,NA,NA,5317.44190002792,NA,NA,138128.651300038,20,693330.162100145,22,1,0,1,23,"Europäische Kunstgeschichte",5,3,2,3,3,2.75
91.304347826087,96,30165.8491478327,"l","accuracy","ga1999ma","1","o","a","1","0","0",14,1,700,"Tue Mar 21 12:01:48 2023",3,"sehr schwer","speed","Experiment.osexp","Bild_s1_o_3.png",1080,"ma",1999,"ga","orangene","C:/Users/steff/Documents/Universität/Master Psychologie/SS 2022/Masterarbeit/Experiment/subject-3.csv",0,0,0,"a",45,45,"a","a",484.368300007191,484.368300007191,3,184380.88740001,212199.754300003,NA,178169.696199999,NA,212684.814200038,211890.353200026,24637.3964000377,NA,NA,4582.87199999904,NA,NA,211897.625700047,211323.554900009,NA,211396.36850002,NA,178263.488800032,5333.81060004467,43479.0046000271,56882.1391999954,71493.1514000054,115604.592400021,129536.731900007,178263.59290001,212684.883600043,NA,184380.910000007,188442.18860002,NA,NA,NA,211022.985300049,NA,NA,NA,NA,NA,NA,NA,178169.511400047,178256.195300026,NA,211396.29600005,NA,NA,211318.263200053,4582.99880003324,212199.854100007,4583.02520000143,211890.274100006,178168.716400047,NA,NA,5317.44190002792,NA,NA,138128.651300038,21,693814.530400152,23,1,0,1,23,"Europäische Kunstgeschichte",5,3,2,3,3,2.75
91.6666666666667,96,28941.3658958389,"l","accuracy","ga1999ma","1","o","a","1","0","0",15,1,700,"Tue Mar 21 12:01:48 2023",3,"sehr schwer","speed","Experiment.osexp","Bild_s1_o_16.png",1080,"ma",1999,"ga","orangene","C:/Users/steff/Documents/Universität/Master Psychologie/SS 2022/Masterarbeit/Experiment/subject-3.csv",0,0,0,"a",50,50,"a","a",778.251099982299,778.251099982299,3,184380.88740001,213857.908200007,NA,178169.696199999,NA,214636.864200002,213547.251600015,24637.3964000377,NA,NA,4582.87199999904,NA,NA,213557.640100014,213014.211300004,NA,211396.36850002,NA,178263.488800032,5333.81060004467,43479.0046000271,56882.1391999954,71493.1514000054,115604.592400021,129536.731900007,178263.59290001,214636.934200011,NA,184380.910000007,188442.18860002,NA,NA,NA,212713.78010005,NA,NA,NA,NA,NA,NA,NA,178169.511400047,178256.195300026,NA,211396.29600005,NA,NA,213008.938700019,4582.99880003324,213857.996100036,4583.02520000143,213547.169000027,178168.716400047,NA,NA,5317.44190002792,NA,NA,138128.651300038,22,694592.781500134,24,1,0,1,23,"Europäische Kunstgeschichte",5,3,2,3,3,2.75
50,96,3294.23894998035,"l","speed","ga1999ma","0","b","l","0","0","0",16,2,700,"Tue Mar 21 12:01:48 2023",3,"sehr schwer","speed","Experiment.osexp","Bild_s1_b_15.png",1080,"ma",1999,"ga","orangene","C:/Users/steff/Documents/Universität/Master Psychologie/SS 2022/Masterarbeit/Experiment/subject-3.csv",0,1,0,"a",40,-10,"a","a",657.308799971361,657.308799971361,3,226156.818700023,226970.774500049,NA,178169.696199999,220103.041600029,227629.032700032,226662.898500043,24637.3964000377,NA,NA,4582.87199999904,NA,215107.772900024,226669.988500013,214965.417900006,NA,226158.328500052,NA,220224.925999995,5333.81060004467,43479.0046000271,56882.1391999954,71493.1514000054,115604.592400021,129536.731900007,220225.058000011,227629.144900013,NA,226156.853200053,188442.18860002,NA,NA,NA,214664.81290001,NA,NA,NA,NA,NA,NA,NA,178169.511400047,220217.781100015,NA,226158.268300002,NA,NA,214960.014200013,4582.99880003324,226970.909300027,4583.02520000143,226662.688800017,178168.716400047,NA,NA,5317.44190002792,NA,NA,138128.651300038,1,6588.47789996071,2,1,50,1,23,"Europäische Kunstgeschichte",5,3,2,3,3,2.75
66.6666666666667,96,2453.62596663957,"l","speed","ga1999ma","1","o","a","0","0","1",17,2,700,"Tue Mar 21 12:01:48 2023",3,"sehr schwer","speed","Experiment.osexp","Bild_s1_o_24.png",1080,"ma",1999,"ga","orangene","C:/Users/steff/Documents/Universität/Master Psychologie/SS 2022/Masterarbeit/Experiment/subject-3.csv",0,0,0,"a",30,-20,"a","a",772.399999957997,772.399999957997,3,226156.818700023,228807.736300048,NA,178169.696199999,220103.041600029,229580.796700029,228499.057900044,24637.3964000377,NA,NA,4582.87199999904,NA,215107.772900024,228506.306800002,227969.376499997,NA,226158.328500052,NA,220224.925999995,5333.81060004467,43479.0046000271,56882.1391999954,71493.1514000054,115604.592400021,129536.731900007,220225.058000011,229580.886000011,NA,226156.853200053,188442.18860002,NA,NA,227668.539000035,214664.81290001,NA,NA,NA,NA,NA,NA,NA,178169.511400047,220217.781100015,NA,226158.268300002,NA,NA,227963.888500002,4582.99880003324,228807.813300053,4583.02520000143,228498.898599995,178168.716400047,NA,NA,5317.44190002792,NA,NA,138128.651300038,2,7360.87789991871,3,1,50,1,23,"Europäische Kunstgeschichte",5,3,2,3,3,2.75
75,96,1982.7518749662,"l","speed","ga1999ma","1","o","a","0","1","0",18,2,700,"Tue Mar 21 12:01:48 2023",2,"eher schwer","speed","Experiment.osexp","Bild_s2_o_21.png",1080,"ma",1999,"ga","orangene","C:/Users/steff/Documents/Universität/Master Psychologie/SS 2022/Masterarbeit/Experiment/subject-3.csv",0,0,0,"a",35,-15,"a","a",570.129599946085,570.129599946085,3,226156.818700023,230785.908100021,NA,178169.696199999,220103.041600029,231356.721000047,230478.108900017,24637.3964000377,NA,NA,4582.87199999904,NA,215107.772900024,230484.928700025,229908.577600028,NA,229980.999000021,NA,220224.925999995,5333.81060004467,43479.0046000271,56882.1391999954,71493.1514000054,115604.592400021,129536.731900007,220225.058000011,231356.789000041,NA,226156.853200053,188442.18860002,229607.92650003,NA,227668.539000035,214664.81290001,NA,NA,NA,NA,NA,NA,NA,178169.511400047,220217.781100015,NA,229980.925900047,NA,NA,229903.162600007,4582.99880003324,230786.095800053,4583.02520000143,230478.006699996,178168.716400047,NA,NA,5317.44190002792,NA,NA,138128.651300038,3,7931.00749986479,4,1,50,1,23,"Europäische Kunstgeschichte",5,3,2,3,3,2.75
80,96,1673.52751997532,"l","speed","ga1999ma","1","b","l","0","1","0",19,2,700,"Tue Mar 21 12:01:48 2023",2,"eher schwer","speed","Experiment.osexp","Bild_s2_b_20.png",1080,"ma",1999,"ga","orangene","C:/Users/steff/Documents/Universität/Master Psychologie/SS 2022/Masterarbeit/Experiment/subject-3.csv",0,0,0,"a",40,-10,"l","l",436.630100011826,436.630100011826,3,226156.818700023,232519.484799996,NA,178169.696199999,220103.041600029,232956.797300023,232210.831700009,24637.3964000377,NA,NA,4582.87199999904,NA,215107.772900024,232217.997800035,231676.978900039,NA,229980.999000021,NA,220224.925999995,5333.81060004467,43479.0046000271,56882.1391999954,71493.1514000054,115604.592400021,129536.731900007,220225.058000011,232956.871100003,NA,226156.853200053,188442.18860002,229607.92650003,NA,227668.539000035,214664.81290001,231376.146299997,NA,NA,NA,NA,NA,NA,178169.511400047,220217.781100015,NA,229980.925900047,NA,NA,231671.519000025,4582.99880003324,232519.588600029,4583.02520000143,232210.750000027,178168.716400047,NA,NA,5317.44190002792,NA,NA,138128.651300038,4,8367.63759987662,5,1,50,1,23,"Europäische Kunstgeschichte",5,3,2,3,3,2.75
83.3333333333333,96,1460.02643331303,"l","speed","ga1999ma","1","o","a","0","1","0",20,2,700,"Tue Mar 21 12:01:48 2023",1,"eher leicht","speed","Experiment.osexp","Bild_s3_o_7.png",1080,"ma",1999,"ga","orangene","C:/Users/steff/Documents/Universität/Master Psychologie/SS 2022/Masterarbeit/Experiment/subject-3.csv",0,0,0,"a",45,-5,"a","a",392.52100000158,392.52100000158,3,226156.818700023,234163.590700016,NA,178169.696199999,220103.041600029,234556.807000015,233855.196900025,24637.3964000377,NA,NA,4582.87199999904,NA,215107.772900024,233862.460600038,233284.510600031,NA,233360.200099996,NA,220224.925999995,5333.81060004467,43479.0046000271,56882.1391999954,71493.1514000054,115604.592400021,129536.731900007,220225.058000011,234556.877500028,NA,226156.853200053,188442.18860002,229607.92650003,NA,227668.539000035,214664.81290001,232983.633299998,NA,NA,NA,NA,NA,NA,178169.511400047,220217.781100015,NA,233360.123899998,NA,NA,233278.981600015,4582.99880003324,234163.686600048,4583.02520000143,233855.119200016,178168.716400047,NA,NA,5317.44190002792,NA,NA,138128.651300038,5,8760.1585998782,6,1,50,1,23,"Europäische Kunstgeschichte",5,3,2,3,3,2.75
85.7142857142857,96,1326.56692855692,"l","speed","ga1999ma","1","o","a","0","1","0",21,2,700,"Tue Mar 21 12:01:48 2023",1,"eher leicht","speed","Experiment.osexp","Bild_s3_o_18.png",1080,"ma",1999,"ga","orangene","C:/Users/steff/Documents/Universität/Master Psychologie/SS 2022/Masterarbeit/Experiment/subject-3.csv",0,0,0,"a",50,0,"a","a",525.809900020249,525.809900020249,3,226156.818700023,235726.206200023,NA,178169.696199999,220103.041600029,236252.764100034,235418.295400043,24637.3964000377,NA,NA,4582.87199999904,NA,215107.772900024,235425.557100039,234886.446700024,NA,233360.200099996,NA,220224.925999995,5333.81060004467,43479.0046000271,56882.1391999954,71493.1514000054,115604.592400021,129536.731900007,220225.058000011,236252.838800021,NA,226156.853200053,188442.18860002,229607.92650003,NA,227668.539000035,214664.81290001,234585.691900051,NA,NA,NA,NA,NA,NA,178169.511400047,220217.781100015,NA,233360.123899998,NA,NA,234881.113400043,4582.99880003324,235726.401399996,4583.02520000143,235418.212799996,178168.716400047,NA,NA,5317.44190002792,NA,NA,138128.651300038,6,9285.96849989844,7,1,50,1,23,"Europäische Kunstgeschichte",5,3,2,3,3,2.75
87.5,96,1204.86183748289,"l","speed","ga1999ma","1","o","a","0","1","0",22,2,700,"Tue Mar 21 12:01:48 2023",0,"sehr leicht","speed","Experiment.osexp","Bild_s4_o_6.png",1080,"ma",1999,"ga","orangene","C:/Users/steff/Documents/Universität/Master Psychologie/SS 2022/Masterarbeit/Experiment/subject-3.csv",0,0,0,"a",55,5,"a","a",352.926199964713,352.926199964713,3,226156.818700023,237451.109300018,NA,178169.696199999,220103.041600029,237804.761100037,237142.915200035,24637.3964000377,NA,NA,4582.87199999904,NA,215107.772900024,237150.100400031,236570.525300049,NA,236640.587500005,NA,220224.925999995,5333.81060004467,43479.0046000271,56882.1391999954,71493.1514000054,115604.592400021,129536.731900007,220225.058000011,237804.831200046,NA,226156.853200053,188442.18860002,229607.92650003,NA,227668.539000035,214664.81290001,236269.801300019,NA,NA,NA,NA,NA,NA,178169.511400047,220217.781100015,NA,236640.514200029,NA,NA,236565.059200046,4582.99880003324,237451.280800044,4583.02520000143,237142.831000034,178168.716400047,NA,NA,5317.44190002792,NA,NA,138128.651300038,7,9638.89469986316,8,1,50,1,23,"Europäische Kunstgeschichte",5,3,2,3,3,2.75
77.7777777777778,96,1110.14189997998,"l","speed","ga1999ma","0","b","l","0","0","0",23,2,700,"Tue Mar 21 12:01:48 2023",0,"sehr leicht","speed","Experiment.osexp","Bild_s4_b_14.png",1080,"ma",1999,"ga","orangene","C:/Users/steff/Documents/Universität/Master Psychologie/SS 2022/Masterarbeit/Experiment/subject-3.csv",0,1,0,"a",45,-5,"a","a",352.382399956696,352.382399956696,3,226156.818700023,238971.749000018,NA,178169.696199999,220103.041600029,239324.780200026,238663.724500046,24637.3964000377,NA,NA,4582.87199999904,NA,215107.772900024,238670.439900015,238126.944200019,NA,236640.587500005,NA,220224.925999995,5333.81060004467,43479.0046000271,56882.1391999954,71493.1514000054,115604.592400021,129536.731900007,220225.058000011,239324.871500023,NA,226156.853200053,188442.18860002,229607.92650003,NA,227668.539000035,214664.81290001,237826.389599999,NA,NA,NA,NA,NA,NA,178169.511400047,220217.781100015,NA,236640.514200029,NA,NA,238121.580100036,4582.99880003324,238971.837400051,4583.02520000143,238663.576500025,178168.716400047,NA,NA,5317.44190002792,NA,NA,138128.651300038,7,9991.27709981985,9,1,50,1,23,"Europäische Kunstgeschichte",5,3,2,3,3,2.75
80,96,1047.02693998115,"l","speed","ga1999ma","1","o","a","0","1","0",24,2,700,"Tue Mar 21 12:01:48 2023",0,"sehr leicht","speed","Experiment.osexp","Bild_s4_o_1.png",1080,"ma",1999,"ga","orangene","C:/Users/steff/Documents/Universität/Master Psychologie/SS 2022/Masterarbeit/Experiment/subject-3.csv",0,0,0,"a",50,0,"a","a",478.99229999166,478.99229999166,3,226156.818700023,240541.093900043,NA,178169.696199999,220103.041600029,241020.768300048,240233.082100051,24637.3964000377,NA,NA,4582.87199999904,NA,215107.772900024,240239.972400013,239654.822600016,NA,239729.884800036,NA,220224.925999995,5333.81060004467,43479.0046000271,56882.1391999954,71493.1514000054,115604.592400021,129536.731900007,220225.058000011,241020.840300014,NA,226156.853200053,188442.18860002,229607.92650003,NA,239353.643600014,214664.81290001,237826.389599999,NA,NA,NA,NA,NA,NA,178169.511400047,220217.781100015,NA,239729.806800024,NA,NA,239649.429800047,4582.99880003324,240541.209900053,4583.02520000143,240233.002600027,178168.716400047,NA,NA,5317.44190002792,NA,NA,138128.651300038,8,10470.2693998115,10,1,50,1,23,"Europäische Kunstgeschichte",5,3,2,3,3,2.75
81.8181818181818,96,995.062427251303,"l","speed","ga1999ma","1","b","l","0","1","0",25,2,700,"Tue Mar 21 12:01:48 2023",0,"sehr leicht","speed","Experiment.osexp","Bild_s4_b_6.png",1080,"ma",1999,"ga","orangene","C:/Users/steff/Documents/Universität/Master Psychologie/SS 2022/Masterarbeit/Experiment/subject-3.csv",0,0,0,"a",55,5,"l","l",475.417299952824,475.417299952824,3,226156.818700023,242192.711500044,NA,178169.696199999,220103.041600029,242668.782300025,241884.790500044,24637.3964000377,NA,NA,4582.87199999904,NA,215107.772900024,241892.096100026,241349.543700053,NA,239729.884800036,NA,220224.925999995,5333.81060004467,43479.0046000271,56882.1391999954,71493.1514000054,115604.592400021,129536.731900007,220225.058000011,242668.854999996,NA,226156.853200053,188442.18860002,229607.92650003,NA,239353.643600014,214664.81290001,241048.852800042,NA,NA,NA,NA,NA,NA,178169.511400047,220217.781100015,NA,239729.806800024,NA,NA,241344.168700045,4582.99880003324,242192.788300046,4583.02520000143,241884.709000005,178168.716400047,NA,NA,5317.44190002792,NA,NA,138128.651300038,9,10945.6866997643,11,1,50,1,23,"Europäische Kunstgeschichte",5,3,2,3,3,2.75
83.3333333333333,96,949.781516649333,"l","speed","ga1999ma","1","o","a","0","1","0",26,2,700,"Tue Mar 21 12:01:48 2023",1,"eher leicht","speed","Experiment.osexp","Bild_s3_o_2.png",1080,"ma",1999,"ga","orangene","C:/Users/steff/Documents/Universität/Master Psychologie/SS 2022/Masterarbeit/Experiment/subject-3.csv",0,0,0,"a",60,10,"a","a",451.691500027664,451.691500027664,3,226156.818700023,243880.444600014,NA,178169.696199999,220103.041600029,244333.073400019,243572.591700009,24637.3964000377,NA,NA,4582.87199999904,NA,215107.772900024,243579.749200027,242997.408299998,NA,243070.891200041,NA,220224.925999995,5333.81060004467,43479.0046000271,56882.1391999954,71493.1514000054,115604.592400021,129536.731900007,220225.058000011,244333.143200027,NA,226156.853200053,188442.18860002,229607.92650003,NA,239353.643600014,214664.81290001,242696.995700011,NA,NA,NA,NA,NA,NA,178169.511400047,220217.781100015,NA,243070.816400053,NA,NA,242991.982300009,4582.99880003324,243880.528700014,4583.02520000143,243572.510200029,178168.716400047,NA,NA,5317.44190002792,NA,NA,138128.651300038,10,11397.378199792,12,1,50,1,23,"Europäische Kunstgeschichte",5,3,2,3,3,2.75
76.9230769230769,96,913.497223062082,"l","speed","ga1999ma","0","b","l","0","0","0",27,2,700,"Tue Mar 21 12:01:48 2023",1,"eher leicht","speed","Experiment.osexp","Bild_s3_b_9.png",1080,"ma",1999,"ga","orangene","C:/Users/steff/Documents/Universität/Master Psychologie/SS 2022/Masterarbeit/Experiment/subject-3.csv",0,1,0,"a",50,0,"a","a",478.085700015072,478.085700015072,3,226156.818700023,245501.93670002,NA,178169.696199999,220103.041600029,245980.831100023,245194.177200028,24637.3964000377,NA,NA,4582.87199999904,NA,215107.772900024,245201.661600033,244658.448700036,NA,243070.891200041,NA,220224.925999995,5333.81060004467,43479.0046000271,56882.1391999954,71493.1514000054,115604.592400021,129536.731900007,220225.058000011,245980.925400043,NA,226156.853200053,188442.18860002,229607.92650003,NA,239353.643600014,214664.81290001,244357.684999995,NA,NA,NA,NA,NA,NA,178169.511400047,220217.781100015,NA,243070.816400053,NA,NA,244652.986200002,4582.99880003324,245502.112600021,4583.02520000143,245194.098800013,178168.716400047,NA,NA,5317.44190002792,NA,NA,138128.651300038,10,11875.4638998071,13,1,50,1,23,"Europäische Kunstgeschichte",5,3,2,3,3,2.75
78.5714285714286,96,888.2540285579,"l","speed","ga1999ma","1","b","l","0","1","0",28,2,700,"Tue Mar 21 12:01:48 2023",2,"eher schwer","speed","Experiment.osexp","Bild_s2_b_11.png",1080,"ma",1999,"ga","orangene","C:/Users/steff/Documents/Universität/Master Psychologie/SS 2022/Masterarbeit/Experiment/subject-3.csv",0,0,0,"a",55,5,"l","l",560.09250000352,560.09250000352,3,226156.818700023,247179.92080003,NA,178169.696199999,220103.041600029,247740.719299996,246872.131900047,24637.3964000377,NA,NA,4582.87199999904,NA,215107.772900024,246879.267800017,246302.532600006,NA,246374.699000036,NA,220224.925999995,5333.81060004467,43479.0046000271,56882.1391999954,71493.1514000054,115604.592400021,129536.731900007,220225.058000011,247740.793100034,NA,226156.853200053,188442.18860002,229607.92650003,NA,246001.80930004,214664.81290001,244357.684999995,NA,NA,NA,NA,NA,NA,178169.511400047,220217.781100015,NA,246374.632100051,NA,NA,246296.925800038,4582.99880003324,247180.111200025,4583.02520000143,246872.052800027,178168.716400047,NA,NA,5317.44190002792,NA,NA,138128.651300038,11,12435.5563998106,14,1,50,1,23,"Europäische Kunstgeschichte",5,3,2,3,3,2.75
80,96,862.763513321988,"l","speed","ga1999ma","1","o","a","0","1","0",29,2,700,"Tue Mar 21 12:01:48 2023",2,"eher schwer","speed","Experiment.osexp","Bild_s2_o_16.png",1080,"ma",1999,"ga","orangene","C:/Users/steff/Documents/Universität/Master Psychologie/SS 2022/Masterarbeit/Experiment/subject-3.csv",0,0,0,"a",60,10,"a","a",505.896300019231,505.896300019231,3,226156.818700023,248914.137600048,NA,178169.696199999,220103.041600029,249420.8506,248606.239300047,24637.3964000377,NA,NA,4582.87199999904,NA,215107.772900024,248613.402600051,248068.558500032,NA,246374.699000036,NA,220224.925999995,5333.81060004467,43479.0046000271,56882.1391999954,71493.1514000054,115604.592400021,129536.731900007,220225.058000011,249420.926100051,NA,226156.853200053,188442.18860002,229607.92650003,NA,246001.80930004,214664.81290001,247767.967600026,NA,NA,NA,NA,NA,NA,178169.511400047,220217.781100015,NA,246374.632100051,NA,NA,248063.169700035,4582.99880003324,248914.307300001,4583.02520000143,248606.08560004,178168.716400047,NA,NA,5317.44190002792,NA,NA,138128.651300038,12,12941.4526998298,15,1,50,1,23,"Europäische Kunstgeschichte",5,3,2,3,3,2.75
75,96,843.943124989892,"l","speed","ga1999ma","0","b","l","0","0","0",30,2,700,"Tue Mar 21 12:01:48 2023",3,"sehr schwer","speed","Experiment.osexp","Bild_s1_b_2.png",1080,"ma",1999,"ga","orangene","C:/Users/steff/Documents/Universität/Master Psychologie/SS 2022/Masterarbeit/Experiment/subject-3.csv",0,1,0,"a",50,0,"a","a",561.637300008442,561.637300008442,3,226156.818700023,250618.389700016,NA,178169.696199999,220103.041600029,251180.909000046,250310.912900022,24637.3964000377,NA,NA,4582.87199999904,NA,215107.772900024,250317.610800033,249740.068000043,NA,249812.901000027,NA,220224.925999995,5333.81060004467,43479.0046000271,56882.1391999954,71493.1514000054,115604.592400021,129536.731900007,220225.058000011,251181.010900007,NA,226156.853200053,188442.18860002,229607.92650003,NA,246001.80930004,214664.81290001,249432.128400018,NA,NA,NA,NA,NA,NA,178169.511400047,220217.781100015,NA,249812.829400005,NA,NA,249734.653500025,4582.99880003324,250618.576600042,4583.02520000143,250310.836300021,178168.716400047,NA,NA,5317.44190002792,NA,NA,138128.651300038,12,13503.0899998383,16,1,50,1,23,"Europäische Kunstgeschichte",5,3,2,3,3,2.75
76.4705882352941,96,869.036282344228,"l","speed","ga1999ma","1","b","l","0","0","1",31,2,700,"Tue Mar 21 12:01:48 2023",3,"sehr schwer","speed","Experiment.osexp","Bild_s1_b_5.png",1080,"ma",1999,"ga","orangene","C:/Users/steff/Documents/Universität/Master Psychologie/SS 2022/Masterarbeit/Experiment/subject-3.csv",0,0,0,"a",40,-10,"l","l",1270.52680001361,1270.52680001361,3,226156.818700023,252357.585799997,NA,178169.696199999,220103.041600029,253628.820900049,252049.586700043,24637.3964000377,NA,NA,4582.87199999904,NA,215107.772900024,252056.502000021,251500.260000001,NA,249812.901000027,NA,220224.925999995,5333.81060004467,43479.0046000271,56882.1391999954,71493.1514000054,115604.592400021,129536.731900007,220225.058000011,253628.920800053,NA,226156.853200053,188442.18860002,229607.92650003,NA,251199.652700045,214664.81290001,249432.128400018,NA,NA,NA,NA,NA,NA,178169.511400047,220217.781100015,NA,249812.829400005,NA,NA,251494.896500022,4582.99880003324,252357.669699995,4583.02520000143,252049.508700031,178168.716400047,NA,NA,5317.44190002792,NA,NA,138128.651300038,13,14773.6167998519,17,1,50,1,23,"Europäische Kunstgeschichte",5,3,2,3,3,2.75
100,96,22724.6267333394,"l","speed","ga1999ma","1","b","l","0","1","0",32,3,700,"Tue Mar 21 12:01:48 2023",3,"sehr schwer","speed","Experiment.osexp","Bild_s1_b_22.png",1080,"ma",1999,"ga","orangene","C:/Users/steff/Documents/Universität/Master Psychologie/SS 2022/Masterarbeit/Experiment/subject-3.csv",0,0,0,"a",5,5,"l","l",478.807199979201,478.807199979201,3,226156.818700023,288909.293300007,285220.334500016,178169.696199999,259090.097000008,289388.9509,288601.928000047,24637.3964000377,259161.471200001,NA,4582.87199999904,NA,254095.024600043,288609.161700006,253947.815000021,288077.698700014,249812.901000027,285320.050100039,220224.925999995,5333.81060004467,43479.0046000271,56882.1391999954,71493.1514000054,115604.592400021,129536.731900007,285320.236800006,289389.025600045,288076.844600029,226156.853200053,188442.18860002,253647.131700011,NA,251199.652700045,214664.81290001,249432.128400018,NA,NA,NA,NA,NA,285312.726800039,178169.511400047,220217.781100015,288077.651700005,249812.829400005,285220.269700047,285164.934600005,253942.435600038,4582.99880003324,288909.373600036,4583.02520000143,288601.696800033,178168.716400047,259157.143200049,259123.611800023,5317.44190002792,NA,NA,138128.651300038,3,68173.8802000182,3,0,40,1,23,"Europäische Kunstgeschichte",5,3,2,3,3,2.75
100,96,17171.5262749931,"l","speed","ga1999ma","1","b","l","0","1","0",33,3,700,"Tue Mar 21 12:01:48 2023",3,"sehr schwer","speed","Experiment.osexp","Bild_s1_b_11.png",1080,"ma",1999,"ga","orangene","C:/Users/steff/Documents/Universität/Master Psychologie/SS 2022/Masterarbeit/Experiment/subject-3.csv",0,0,0,"a",10,10,"l","l",512.224899954163,512.224899954163,3,226156.818700023,290571.761600033,285220.334500016,178169.696199999,259090.097000008,291084.772200033,290264.229300024,24637.3964000377,259161.471200001,NA,4582.87199999904,NA,254095.024600043,290270.90350003,289717.558900011,288077.698700014,249812.901000027,285320.050100039,220224.925999995,5333.81060004467,43479.0046000271,56882.1391999954,71493.1514000054,115604.592400021,129536.731900007,285320.236800006,291084.848400031,288076.844600029,226156.853200053,188442.18860002,253647.131700011,NA,251199.652700045,214664.81290001,289416.786200018,NA,NA,NA,NA,NA,285312.726800039,178169.511400047,220217.781100015,288077.651700005,249812.829400005,285220.269700047,285164.934600005,289711.977500003,4582.99880003324,290571.932300052,4583.02520000143,290264.147800044,178168.716400047,259157.143200049,259123.611800023,5317.44190002792,NA,NA,138128.651300038,4,68686.1050999723,4,0,40,1,23,"Europäische Kunstgeschichte",5,3,2,3,3,2.75
100,96,13839.0730999992,"l","speed","ga1999ma","1","o","a","0","1","0",34,3,700,"Tue Mar 21 12:01:48 2023",3,"sehr schwer","speed","Experiment.osexp","Bild_s1_o_9.png",1080,"ma",1999,"ga","orangene","C:/Users/steff/Documents/Universität/Master Psychologie/SS 2022/Masterarbeit/Experiment/subject-3.csv",0,0,0,"a",15,15,"a","a",509.260400023777,509.260400023777,3,226156.818700023,292254.712500027,285220.334500016,178169.696199999,259090.097000008,292764.819700038,291946.832400048,24637.3964000377,259161.471200001,NA,4582.87199999904,NA,254095.024600043,291954.01300001,291412.003300036,288077.698700014,249812.901000027,285320.050100039,220224.925999995,5333.81060004467,43479.0046000271,56882.1391999954,71493.1514000054,115604.592400021,129536.731900007,285320.236800006,292764.896900044,288076.844600029,226156.853200053,188442.18860002,253647.131700011,NA,251199.652700045,214664.81290001,291111.395400017,NA,NA,NA,NA,NA,285312.726800039,178169.511400047,220217.781100015,288077.651700005,249812.829400005,285220.269700047,285164.934600005,291406.662699999,4582.99880003324,292254.901500011,4583.02520000143,291946.750500007,178168.716400047,259157.143200049,259123.611800023,5317.44190002792,NA,NA,138128.651300038,5,69195.3654999961,5,0,40,1,23,"Europäische Kunstgeschichte",5,3,2,3,3,2.75
100,96,11611.9439666606,"l","speed","ga1999ma","1","b","l","0","1","0",35,3,700,"Tue Mar 21 12:01:48 2023",3,"sehr schwer","speed","Experiment.osexp","Bild_s1_b_13.png",1080,"ma",1999,"ga","orangene","C:/Users/steff/Documents/Universität/Master Psychologie/SS 2022/Masterarbeit/Experiment/subject-3.csv",0,0,0,"a",20,20,"l","l",476.298299967311,476.298299967311,3,226156.818700023,293951.775600028,285220.334500016,178169.696199999,259090.097000008,294428.726400016,293643.498300051,24637.3964000377,259161.471200001,NA,4582.87199999904,NA,254095.024600043,293650.508100051,293092.5804,288077.698700014,249812.901000027,285320.050100039,220224.925999995,5333.81060004467,43479.0046000271,56882.1391999954,71493.1514000054,115604.592400021,129536.731900007,285320.236800006,294428.8008,288076.844600029,226156.853200053,188442.18860002,253647.131700011,NA,251199.652700045,214664.81290001,292791.893300018,NA,NA,NA,NA,NA,285312.726800039,178169.511400047,220217.781100015,288077.651700005,249812.829400005,285220.269700047,285164.934600005,293087.214400002,4582.99880003324,293951.869700046,4583.02520000143,293643.417500018,178168.716400047,259157.143200049,259123.611800023,5317.44190002792,NA,NA,138128.651300038,6,69671.6637999634,6,0,40,1,23,"Europäische Kunstgeschichte",5,3,2,3,3,2.75
85.7142857142857,96,10011.5076999895,"l","speed","ga1999ma","0","b","l","0","0","0",36,3,700,"Tue Mar 21 12:01:48 2023",3,"sehr schwer","speed","Experiment.osexp","Bild_s1_b_15.png",1080,"ma",1999,"ga","orangene","C:/Users/steff/Documents/Universität/Master Psychologie/SS 2022/Masterarbeit/Experiment/subject-3.csv",0,1,0,"a",10,10,"a","a",408.890099963173,408.890099963173,3,226156.818700023,295603.197700053,285220.334500016,178169.696199999,259090.097000008,296012.840600044,295294.84050005,24637.3964000377,259161.471200001,NA,4582.87199999904,NA,254095.024600043,295301.864800043,294755.314500013,288077.698700014,249812.901000027,285320.050100039,220224.925999995,5333.81060004467,43479.0046000271,56882.1391999954,71493.1514000054,115604.592400021,129536.731900007,285320.236800006,296012.941599998,288076.844600029,226156.853200053,188442.18860002,253647.131700011,NA,251199.652700045,214664.81290001,294454.897800053,NA,NA,NA,NA,NA,285312.726800039,178169.511400047,220217.781100015,288077.651700005,249812.829400005,285220.269700047,285164.934600005,294749.963200011,4582.99880003324,295603.281600052,4583.02520000143,295294.757700001,178168.716400047,259157.143200049,259123.611800023,5317.44190002792,NA,NA,138128.651300038,6,70080.5538999266,7,0,40,1,23,"Europäische Kunstgeschichte",5,3,2,3,3,2.75
87.5,96,8821.55168749159,"l","speed","ga1999ma","1","b","l","0","1","0",37,3,700,"Tue Mar 21 12:01:48 2023",3,"sehr schwer","speed","Experiment.osexp","Bild_s1_b_24.png",1080,"ma",1999,"ga","orangene","C:/Users/steff/Documents/Universität/Master Psychologie/SS 2022/Masterarbeit/Experiment/subject-3.csv",0,0,0,"a",15,15,"l","l",491.859600006137,491.859600006137,3,226156.818700023,297184.102300031,285220.334500016,178169.696199999,259090.097000008,297676.813800004,296876.219700032,24637.3964000377,259161.471200001,NA,4582.87199999904,NA,254095.024600043,296883.518000017,296327.106400044,288077.698700014,249812.901000027,285320.050100039,220224.925999995,5333.81060004467,43479.0046000271,56882.1391999954,71493.1514000054,115604.592400021,129536.731900007,285320.236800006,297676.88730004,288076.844600029,226156.853200053,188442.18860002,253647.131700011,NA,296026.701800001,214664.81290001,294454.897800053,NA,NA,NA,NA,NA,285312.726800039,178169.511400047,220217.781100015,288077.651700005,249812.829400005,285220.269700047,285164.934600005,296321.75220002,4582.99880003324,297184.270000027,4583.02520000143,296876.139200001,178168.716400047,259157.143200049,259123.611800023,5317.44190002792,NA,NA,138128.651300038,7,70572.4134999327,8,0,40,1,23,"Europäische Kunstgeschichte",5,3,2,3,3,2.75
88.8888888888889,96,7900.85914443868,"l","speed","ga1999ma","1","b","l","0","1","0",38,3,700,"Tue Mar 21 12:01:48 2023",3,"sehr schwer","speed","Experiment.osexp","Bild_s1_b_2.png",1080,"ma",1999,"ga","orangene","C:/Users/steff/Documents/Universität/Master Psychologie/SS 2022/Masterarbeit/Experiment/subject-3.csv",0,0,0,"a",20,20,"l","l",535.318800015375,535.318800015375,3,226156.818700023,298852.742800023,285220.334500016,178169.696199999,259090.097000008,299388.779500034,298544.885700045,24637.3964000377,259161.471200001,NA,4582.87199999904,NA,254095.024600043,298552.197700017,298004.244700016,288077.698700014,249812.901000027,285320.050100039,220224.925999995,5333.81060004467,43479.0046000271,56882.1391999954,71493.1514000054,115604.592400021,129536.731900007,285320.236800006,299388.855600031,288076.844600029,226156.853200053,188442.18860002,253647.131700011,NA,296026.701800001,214664.81290001,297703.501800017,NA,NA,NA,NA,NA,285312.726800039,178169.511400047,220217.781100015,288077.651700005,249812.829400005,285220.269700047,285164.934600005,297998.837499996,4582.99880003324,298852.839700005,4583.02520000143,298544.722300023,178168.716400047,259157.143200049,259123.611800023,5317.44190002792,NA,NA,138128.651300038,8,71107.7322999481,9,0,40,1,23,"Europäische Kunstgeschichte",5,3,2,3,3,2.75
90,96,7160.8941799961,"l","speed","ga1999ma","1","o","a","0","1","0",39,3,700,"Tue Mar 21 12:01:48 2023",3,"sehr schwer","speed","Experiment.osexp","Bild_s1_o_5.png",1080,"ma",1999,"ga","orangene","C:/Users/steff/Documents/Universität/Master Psychologie/SS 2022/Masterarbeit/Experiment/subject-3.csv",0,0,0,"a",25,25,"a","a",501.209500012919,501.209500012919,3,226156.818700023,300566.778800043,285220.334500016,178169.696199999,259090.097000008,301068.838100007,300258.863900031,24637.3964000377,259161.471200001,NA,4582.87199999904,NA,254095.024600043,300266.09530003,299717.398100009,288077.698700014,249812.901000027,285320.050100039,220224.925999995,5333.81060004467,43479.0046000271,56882.1391999954,71493.1514000054,115604.592400021,129536.731900007,285320.236800006,301068.914800009,288076.844600029,226156.853200053,188442.18860002,253647.131700011,NA,296026.701800001,214664.81290001,299416.827100038,NA,NA,NA,NA,NA,285312.726800039,178169.511400047,220217.781100015,288077.651700005,249812.829400005,285220.269700047,285164.934600005,299712.120800046,4582.99880003324,300566.948799998,4583.02520000143,300258.78600002,178168.716400047,259157.143200049,259123.611800023,5317.44190002792,NA,NA,138128.651300038,9,71608.941799961,10,0,40,1,23,"Europäische Kunstgeschichte",5,3,2,3,3,2.75
90.9090909090909,96,6547.30007272023,"l","speed","ga1999ma","1","b","l","0","1","0",40,3,700,"Tue Mar 21 12:01:48 2023",3,"sehr schwer","speed","Experiment.osexp","Bild_s1_b_16.png",1080,"ma",1999,"ga","orangene","C:/Users/steff/Documents/Universität/Master Psychologie/SS 2022/Masterarbeit/Experiment/subject-3.csv",0,0,0,"a",30,30,"l","l",411.358999961521,411.358999961521,3,226156.818700023,302288.709600049,285220.334500016,178169.696199999,259090.097000008,302700.836700038,301980.6063,24637.3964000377,259161.471200001,NA,4582.87199999904,NA,254095.024600043,301987.856700027,301396.150700049,301473.554700031,249812.901000027,285320.050100039,220224.925999995,5333.81060004467,43479.0046000271,56882.1391999954,71493.1514000054,115604.592400021,129536.731900007,285320.236800006,302700.910600019,288076.844600029,226156.853200053,188442.18860002,253647.131700011,NA,296026.701800001,214664.81290001,301095.559000038,NA,NA,NA,NA,NA,285312.726800039,178169.511400047,220217.781100015,301473.478400032,249812.829400005,285220.269700047,285164.934600005,301390.791700047,4582.99880003324,302288.792300038,4583.02520000143,301980.525500025,178168.716400047,259157.143200049,259123.611800023,5317.44190002792,NA,NA,138128.651300038,10,72020.3007999226,11,0,40,1,23,"Europäische Kunstgeschichte",5,3,2,3,3,2.75
91.6666666666667,96,6046.88134999499,"l","speed","ga1999ma","1","o","a","0","1","0",41,3,700,"Tue Mar 21 12:01:48 2023",3,"sehr schwer","speed","Experiment.osexp","Bild_s1_o_3.png",1080,"ma",1999,"ga","orangene","C:/Users/steff/Documents/Universität/Master Psychologie/SS 2022/Masterarbeit/Experiment/subject-3.csv",0,0,0,"a",35,35,"a","a",542.275400017388,542.275400017388,3,226156.818700023,303885.801199998,285220.334500016,178169.696199999,259090.097000008,304428.876200051,303577.708900033,24637.3964000377,259161.471200001,NA,4582.87199999904,NA,254095.024600043,303584.961900022,303030.692300003,301473.554700031,249812.901000027,285320.050100039,220224.925999995,5333.81060004467,43479.0046000271,56882.1391999954,71493.1514000054,115604.592400021,129536.731900007,285320.236800006,304428.951800044,288076.844600029,226156.853200053,188442.18860002,253647.131700011,NA,296026.701800001,214664.81290001,302730.111900019,NA,NA,NA,NA,NA,285312.726800039,178169.511400047,220217.781100015,301473.478400032,249812.829400005,285220.269700047,285164.934600005,303025.295600004,4582.99880003324,303885.887600016,4583.02520000143,303577.627699997,178168.716400047,259157.143200049,259123.611800023,5317.44190002792,NA,NA,138128.651300038,11,72562.5761999399,12,0,40,1,23,"Europäische Kunstgeschichte",5,3,2,3,3,2.75
84.6153846153846,96,5610.33792307493,"l","speed","ga1999ma","0","o","a","0","0","0",42,3,700,"Tue Mar 21 12:01:48 2023",3,"sehr schwer","speed","Experiment.osexp","Bild_s1_o_15.png",1080,"ma",1999,"ga","orangene","C:/Users/steff/Documents/Universität/Master Psychologie/SS 2022/Masterarbeit/Experiment/subject-3.csv",0,1,0,"a",25,25,"l","l",371.816800034139,371.816800034139,3,226156.818700023,305608.243399998,285220.334500016,178169.696199999,259090.097000008,305980.912900006,305299.654100032,24637.3964000377,259161.471200001,NA,4582.87199999904,NA,254095.024600043,305306.555000017,304750.83220005,301473.554700031,249812.901000027,285320.050100039,220224.925999995,5333.81060004467,43479.0046000271,56882.1391999954,71493.1514000054,115604.592400021,129536.731900007,285320.236800006,305981.015700032,288076.844600029,226156.853200053,188442.18860002,253647.131700011,NA,296026.701800001,214664.81290001,304450.480400003,NA,NA,NA,NA,NA,285312.726800039,178169.511400047,220217.781100015,301473.478400032,249812.829400005,285220.269700047,285164.934600005,304745.448700036,4582.99880003324,305608.337300015,4583.02520000143,305299.569600029,178168.716400047,259157.143200049,259123.611800023,5317.44190002792,NA,NA,138128.651300038,11,72934.3929999741,13,0,40,1,23,"Europäische Kunstgeschichte",5,3,2,3,3,2.75
78.5714285714286,96,5242.17902856929,"l","speed","ga1999ma","0","o","a","0","0","0",43,3,700,"Tue Mar 21 12:01:48 2023",3,"sehr schwer","speed","Experiment.osexp","Bild_s1_o_1.png",1080,"ma",1999,"ga","orangene","C:/Users/steff/Documents/Universität/Master Psychologie/SS 2022/Masterarbeit/Experiment/subject-3.csv",0,1,0,"a",15,15,"l","l",456.113399995957,456.113399995957,3,226156.818700023,307155.950000044,285220.334500016,178169.696199999,259090.097000008,307612.735200033,306847.924500005,24637.3964000377,259161.471200001,NA,4582.87199999904,NA,254095.024600043,306854.976400035,306296.567600046,301473.554700031,249812.901000027,285320.050100039,220224.925999995,5333.81060004467,43479.0046000271,56882.1391999954,71493.1514000054,115604.592400021,129536.731900007,285320.236800006,307612.82920005,288076.844600029,226156.853200053,188442.18860002,253647.131700011,NA,305995.232200017,214664.81290001,304450.480400003,NA,NA,NA,NA,NA,285312.726800039,178169.511400047,220217.781100015,301473.478400032,249812.829400005,285220.269700047,285164.934600005,306291.15470004,4582.99880003324,307156.037200009,4583.02520000143,306847.840500006,178168.716400047,259157.143200049,259123.611800023,5317.44190002792,NA,NA,138128.651300038,11,73390.50639997,14,0,40,1,23,"Europäische Kunstgeschichte",5,3,2,3,3,2.75
80,96,4925.89096666391,"l","speed","ga1999ma","1","b","l","0","1","0",44,3,700,"Tue Mar 21 12:01:48 2023",3,"sehr schwer","speed","Experiment.osexp","Bild_s1_b_14.png",1080,"ma",1999,"ga","orangene","C:/Users/steff/Documents/Universität/Master Psychologie/SS 2022/Masterarbeit/Experiment/subject-3.csv",0,0,0,"a",20,20,"l","l",497.858099988662,497.858099988662,3,226156.818700023,308794.211500033,285220.334500016,178169.696199999,259090.097000008,309292.825300014,308486.052900029,24637.3964000377,259161.471200001,NA,4582.87199999904,NA,254095.024600043,308493.054600025,307946.12410001,301473.554700031,249812.901000027,285320.050100039,220224.925999995,5333.81060004467,43479.0046000271,56882.1391999954,71493.1514000054,115604.592400021,129536.731900007,285320.236800006,309292.899000051,288076.844600029,226156.853200053,188442.18860002,253647.131700011,NA,307641.219400044,214664.81290001,304450.480400003,NA,NA,NA,NA,NA,285312.726800039,178169.511400047,220217.781100015,301473.478400032,249812.829400005,285220.269700047,285164.934600005,307940.736800025,4582.99880003324,308794.297100045,4583.02520000143,308485.9039,178168.716400047,259157.143200049,259123.611800023,5317.44190002792,NA,NA,138128.651300038,12,73888.3644999587,15,0,40,1,23,"Europäische Kunstgeschichte",5,3,2,3,3,2.75
75,96,4655.03106874894,"l","speed","ga1999ma","0","o","a","0","0","0",45,3,700,"Tue Mar 21 12:01:48 2023",3,"sehr schwer","speed","Experiment.osexp","Bild_s1_o_12.png",1080,"ma",1999,"ga","orangene","C:/Users/steff/Documents/Universität/Master Psychologie/SS 2022/Masterarbeit/Experiment/subject-3.csv",0,1,0,"a",10,10,"l","l",592.132600024343,592.132600024343,3,226156.818700023,310459.844800003,285220.334500016,178169.696199999,259090.097000008,311052.787300025,310151.343100006,24637.3964000377,259161.471200001,NA,4582.87199999904,NA,254095.024600043,310158.641700051,309610.646100016,301473.554700031,249812.901000027,285320.050100039,220224.925999995,5333.81060004467,43479.0046000271,56882.1391999954,71493.1514000054,115604.592400021,129536.731900007,285320.236800006,311052.884500008,288076.844600029,226156.853200053,188442.18860002,253647.131700011,NA,307641.219400044,214664.81290001,309310.495200043,NA,NA,NA,NA,NA,285312.726800039,178169.511400047,220217.781100015,301473.478400032,249812.829400005,285220.269700047,285164.934600005,309605.162399996,4582.99880003324,310460.013500007,4583.02520000143,310151.264500048,178168.716400047,259157.143200049,259123.611800023,5317.44190002792,NA,NA,138128.651300038,12,74480.497099983,16,0,40,1,23,"Europäische Kunstgeschichte",5,3,2,3,3,2.75
76.4705882352941,96,4427.61137646705,"l","speed","ga1999ma","1","b","l","0","0","1",46,3,700,"Tue Mar 21 12:01:48 2023",3,"sehr schwer","speed","Experiment.osexp","Bild_s1_b_23.png",1080,"ma",1999,"ga","orangene","C:/Users/steff/Documents/Universität/Master Psychologie/SS 2022/Masterarbeit/Experiment/subject-3.csv",0,0,0,"a",0,0,"l","l",788.896299956832,788.896299956832,3,226156.818700023,312234.840400051,285220.334500016,178169.696199999,259090.097000008,313024.632400018,311926.998300012,24637.3964000377,259161.471200001,NA,4582.87199999904,NA,254095.024600043,311934.189599997,311372.961100016,301473.554700031,249812.901000027,285320.050100039,220224.925999995,5333.81060004467,43479.0046000271,56882.1391999954,71493.1514000054,115604.592400021,129536.731900007,285320.236800006,313024.729900004,288076.844600029,226156.853200053,188442.18860002,253647.131700011,NA,311072.521000053,214664.81290001,309310.495200043,NA,NA,NA,NA,NA,285312.726800039,178169.511400047,220217.781100015,301473.478400032,249812.829400005,285220.269700047,285164.934600005,311367.492999998,4582.99880003324,312235.01470004,4583.02520000143,311926.913500007,178168.716400047,259157.143200049,259123.611800023,5317.44190002792,NA,NA,138128.651300038,13,75269.3933999399,17,0,40,1,23,"Europäische Kunstgeschichte",5,3,2,3,3,2.75
72.2222222222222,96,4221.16552777394,"l","speed","ga1999ma","0","o","a","0","0","0",47,3,700,"Tue Mar 21 12:01:48 2023",3,"sehr schwer","speed","Experiment.osexp","Bild_s1_o_4.png",1080,"ma",1999,"ga","orangene","C:/Users/steff/Documents/Universität/Master Psychologie/SS 2022/Masterarbeit/Experiment/subject-3.csv",0,0,1,"a",-10,-10,"l","l",711.586099991109,711.586099991109,3,226156.818700023,314196.46040001,285220.334500016,178169.696199999,259090.097000008,314908.815100032,313888.592000003,24637.3964000377,259161.471200001,NA,4582.87199999904,NA,254095.024600043,313895.495900011,313335.2801,301473.554700031,249812.901000027,285320.050100039,220224.925999995,5333.81060004467,43479.0046000271,56882.1391999954,71493.1514000054,115604.592400021,129536.731900007,285320.236800006,314908.929700032,288076.844600029,226156.853200053,188442.18860002,313034.739600029,NA,311072.521000053,214664.81290001,309310.495200043,NA,NA,NA,NA,NA,285312.726800039,178169.511400047,220217.781100015,301473.478400032,249812.829400005,285220.269700047,285164.934600005,313329.862600018,4582.99880003324,314196.555000031,4583.02520000143,313888.488400029,178168.716400047,259157.143200049,259123.611800023,5317.44190002792,NA,NA,138128.651300038,13,75980.979499931,18,0,40,1,23,"Europäische Kunstgeschichte",5,3,2,3,3,2.75
68.4210526315789,96,4019.82533683584,"l","speed","ga1999ma","0","b","l","0","0","0",48,3,700,"Tue Mar 21 12:01:48 2023",2,"eher schwer","speed","Experiment.osexp","Bild_s2_b_24.png",1080,"ma",1999,"ga","orangene","C:/Users/steff/Documents/Universität/Master Psychologie/SS 2022/Masterarbeit/Experiment/subject-3.csv",0,1,0,"a",-20,-20,"a","a",395.701899949927,395.701899949927,3,226156.818700023,316128.322000033,285220.334500016,178169.696199999,259090.097000008,316524.900900025,315820.344300009,24637.3964000377,259161.471200001,NA,4582.87199999904,NA,254095.024600043,315827.466999996,315237.464000005,315311.46690005,249812.901000027,285320.050100039,220224.925999995,5333.81060004467,43479.0046000271,56882.1391999954,71493.1514000054,115604.592400021,129536.731900007,285320.236800006,316525.000600028,288076.844600029,226156.853200053,188442.18860002,313034.739600029,314936.826799996,311072.521000053,214664.81290001,309310.495200043,NA,NA,NA,NA,NA,285312.726800039,178169.511400047,220217.781100015,315311.39550003,249812.829400005,285220.269700047,285164.934600005,315232.08430002,4582.99880003324,316128.439100052,4583.02520000143,315820.264900045,178168.716400047,259157.143200049,259123.611800023,5317.44190002792,NA,NA,138128.651300038,13,76376.6813998809,19,0,40,1,23,"Europäische Kunstgeschichte",5,3,2,3,3,2.75
65,96,3846.00187499309,"l","speed","ga1999ma","0","o","a","0","0","0",49,3,700,"Tue Mar 21 12:01:48 2023",2,"eher schwer","speed","Experiment.osexp","Bild_s2_o_12.png",1080,"ma",1999,"ga","orangene","C:/Users/steff/Documents/Universität/Master Psychologie/SS 2022/Masterarbeit/Experiment/subject-3.csv",0,1,0,"a",-30,-30,"l","l",543.356099980883,543.356099980883,3,226156.818700023,317692.701200023,285220.334500016,178169.696199999,259090.097000008,318236.966199998,317384.838400001,24637.3964000377,259161.471200001,NA,4582.87199999904,NA,254095.024600043,317391.843400022,316835.932200018,315311.46690005,249812.901000027,285320.050100039,220224.925999995,5333.81060004467,43479.0046000271,56882.1391999954,71493.1514000054,115604.592400021,129536.731900007,285320.236800006,318237.060200016,288076.844600029,226156.853200053,188442.18860002,313034.739600029,314936.826799996,316535.243100021,214664.81290001,309310.495200043,NA,NA,NA,NA,NA,285312.726800039,178169.511400047,220217.781100015,315311.39550003,249812.829400005,285220.269700047,285164.934600005,316830.572600011,4582.99880003324,317692.787300039,4583.02520000143,317384.756900021,178168.716400047,259157.143200049,259123.611800023,5317.44190002792,NA,NA,138128.651300038,13,76920.0374998618,20,0,40,1,23,"Europäische Kunstgeschichte",5,3,2,3,3,2.75
66.6666666666667,96,3692.86072380297,"l","speed","ga1999ma","1","b","l","0","1","0",50,3,700,"Tue Mar 21 12:01:48 2023",2,"eher schwer","speed","Experiment.osexp","Bild_s2_b_19.png",1080,"ma",1999,"ga","orangene","C:/Users/steff/Documents/Universität/Master Psychologie/SS 2022/Masterarbeit/Experiment/subject-3.csv",0,0,0,"a",-25,-25,"l","l",630.037700000685,630.037700000685,3,226156.818700023,319413.917700003,285220.334500016,178169.696199999,259090.097000008,320044.834900007,319105.958,24637.3964000377,259161.471200001,NA,4582.87199999904,NA,254095.024600043,319113.020000048,318563.318100001,315311.46690005,249812.901000027,285320.050100039,220224.925999995,5333.81060004467,43479.0046000271,56882.1391999954,71493.1514000054,115604.592400021,129536.731900007,285320.236800006,320044.911000005,288076.844600029,226156.853200053,188442.18860002,313034.739600029,314936.826799996,318262.245699996,214664.81290001,309310.495200043,NA,NA,NA,NA,NA,285312.726800039,178169.511400047,220217.781100015,315311.39550003,249812.829400005,285220.269700047,285164.934600005,318557.912500051,4582.99880003324,319414.112000028,4583.02520000143,319105.874200002,178168.716400047,259157.143200049,259123.611800023,5317.44190002792,NA,NA,138128.651300038,14,77550.0751998625,21,0,40,1,23,"Europäische Kunstgeschichte",5,3,2,3,3,2.75
68.1818181818182,96,3544.06584544763,"l","speed","ga1999ma","1","o","a","0","1","0",51,3,700,"Tue Mar 21 12:01:48 2023",2,"eher schwer","speed","Experiment.osexp","Bild_s2_o_11.png",1080,"ma",1999,"ga","orangene","C:/Users/steff/Documents/Universität/Master Psychologie/SS 2022/Masterarbeit/Experiment/subject-3.csv",0,0,0,"a",-20,-20,"a","a",419.373399985489,419.373399985489,3,226156.818700023,321224.700400024,285220.334500016,178169.696199999,259090.097000008,321644.844099996,320916.048700048,24637.3964000377,259161.471200001,NA,4582.87199999904,NA,254095.024600043,320923.191700014,320375.171700027,315311.46690005,249812.901000027,285320.050100039,220224.925999995,5333.81060004467,43479.0046000271,56882.1391999954,71493.1514000054,115604.592400021,129536.731900007,285320.236800006,321644.929700007,288076.844600029,226156.853200053,188442.18860002,313034.739600029,314936.826799996,318262.245699996,214664.81290001,320074.721100042,NA,NA,NA,NA,NA,285312.726800039,178169.511400047,220217.781100015,315311.39550003,249812.829400005,285220.269700047,285164.934600005,320369.818800013,4582.99880003324,321224.785100028,4583.02520000143,320915.969700029,178168.716400047,259157.143200049,259123.611800023,5317.44190002792,NA,NA,138128.651300038,15,77969.448599848,22,0,40,1,23,"Europäische Kunstgeschichte",5,3,2,3,3,2.75
69.5652173913043,96,3413.15938695081,"l","speed","ga1999ma","1","b","l","0","1","0",52,3,700,"Tue Mar 21 12:01:48 2023",2,"eher schwer","speed","Experiment.osexp","Bild_s2_b_5.png",1080,"ma",1999,"ga","orangene","C:/Users/steff/Documents/Universität/Master Psychologie/SS 2022/Masterarbeit/Experiment/subject-3.csv",0,0,0,"a",-15,-15,"l","l",533.217300020624,533.217300020624,3,226156.818700023,322806.721100002,285220.334500016,178169.696199999,259090.097000008,323340.879900032,322498.532600002,24637.3964000377,259161.471200001,NA,4582.87199999904,NA,254095.024600043,322505.648000049,321956.012000039,315311.46690005,249812.901000027,285320.050100039,220224.925999995,5333.81060004467,43479.0046000271,56882.1391999954,71493.1514000054,115604.592400021,129536.731900007,285320.236800006,323340.954900021,288076.844600029,226156.853200053,188442.18860002,313034.739600029,314936.826799996,318262.245699996,214664.81290001,321655.643600039,NA,NA,NA,NA,NA,285312.726800039,178169.511400047,220217.781100015,315311.39550003,249812.829400005,285220.269700047,285164.934600005,321950.674900028,4582.99880003324,322806.919199997,4583.02520000143,322498.44950001,178168.716400047,259157.143200049,259123.611800023,5317.44190002792,NA,NA,138128.651300038,16,78502.6658998686,23,0,40,1,23,"Europäische Kunstgeschichte",5,3,2,3,3,2.75
70.8333333333333,96,3293.12269166015,"l","speed","ga1999ma","1","o","a","0","1","0",53,3,700,"Tue Mar 21 12:01:48 2023",2,"eher schwer","speed","Experiment.osexp","Bild_s2_o_10.png",1080,"ma",1999,"ga","orangene","C:/Users/steff/Documents/Universität/Master Psychologie/SS 2022/Masterarbeit/Experiment/subject-3.csv",0,0,0,"a",-10,-10,"a","a",532.278699974995,532.278699974995,3,226156.818700023,324519.698000047,285220.334500016,178169.696199999,259090.097000008,325052.894000022,324211.662900052,24637.3964000377,259161.471200001,NA,4582.87199999904,NA,254095.024600043,324218.899300031,323668.350000051,315311.46690005,249812.901000027,285320.050100039,220224.925999995,5333.81060004467,43479.0046000271,56882.1391999954,71493.1514000054,115604.592400021,129536.731900007,285320.236800006,325052.972500038,288076.844600029,226156.853200053,188442.18860002,313034.739600029,314936.826799996,318262.245699996,214664.81290001,323367.540700012,NA,NA,NA,NA,NA,285312.726800039,178169.511400047,220217.781100015,315311.39550003,249812.829400005,285220.269700047,285164.934600005,323663.044000044,4582.99880003324,324519.865900045,4583.02520000143,324211.578100047,178168.716400047,259157.143200049,259123.611800023,5317.44190002792,NA,NA,138128.651300038,17,79034.9445998436,24,0,40,1,23,"Europäische Kunstgeschichte",5,3,2,3,3,2.75
72,96,3179.8635279946,"l","speed","ga1999ma","1","b","l","0","1","0",54,3,700,"Tue Mar 21 12:01:48 2023",2,"eher schwer","speed","Experiment.osexp","Bild_s2_b_11.png",1080,"ma",1999,"ga","orangene","C:/Users/steff/Documents/Universität/Master Psychologie/SS 2022/Masterarbeit/Experiment/subject-3.csv",0,0,0,"a",-5,-5,"l","l",461.643600021489,461.643600021489,3,226156.818700023,326254.415300034,285220.334500016,178169.696199999,259090.097000008,326716.79960005,325945.371500042,24637.3964000377,259161.471200001,NA,4582.87199999904,NA,254095.024600043,325952.746000024,325401.050100045,315311.46690005,249812.901000027,285320.050100039,220224.925999995,5333.81060004467,43479.0046000271,56882.1391999954,71493.1514000054,115604.592400021,129536.731900007,285320.236800006,326716.876699997,288076.844600029,226156.853200053,188442.18860002,313034.739600029,314936.826799996,318262.245699996,214664.81290001,325100.368100044,NA,NA,NA,NA,NA,285312.726800039,178169.511400047,220217.781100015,315311.39550003,249812.829400005,285220.269700047,285164.934600005,325395.709400007,4582.99880003324,326254.496100009,4583.02520000143,325945.288200048,178168.716400047,259157.143200049,259123.611800023,5317.44190002792,NA,NA,138128.651300038,18,79496.5881998651,25,0,40,1,23,"Europäische Kunstgeschichte",5,3,2,3,3,2.75
73.0769230769231,96,3072.2035115334,"l","speed","ga1999ma","1","o","a","0","1","0",55,3,700,"Tue Mar 21 12:01:48 2023",2,"eher schwer","speed","Experiment.osexp","Bild_s2_o_16.png",1080,"ma",1999,"ga","orangene","C:/Users/steff/Documents/Universität/Master Psychologie/SS 2022/Masterarbeit/Experiment/subject-3.csv",0,0,0,"a",0,0,"a","a",380.703100003302,380.703100003302,3,226156.818700023,327903.182600043,285220.334500016,178169.696199999,259090.097000008,328284.96650001,327594.518500031,24637.3964000377,259161.471200001,NA,4582.87199999904,NA,254095.024600043,327601.855700021,327057.458100026,315311.46690005,249812.901000027,285320.050100039,220224.925999995,5333.81060004467,43479.0046000271,56882.1391999954,71493.1514000054,115604.592400021,129536.731900007,285320.236800006,328285.042200005,288076.844600029,226156.853200053,188442.18860002,313034.739600029,314936.826799996,318262.245699996,214664.81290001,326756.892900041,NA,NA,NA,NA,NA,285312.726800039,178169.511400047,220217.781100015,315311.39550003,249812.829400005,285220.269700047,285164.934600005,327052.059500013,4582.99880003324,327903.392900014,4583.02520000143,327594.439000008,178168.716400047,259157.143200049,259123.611800023,5317.44190002792,NA,NA,138128.651300038,19,79877.2912998684,26,0,40,1,23,"Europäische Kunstgeschichte",5,3,2,3,3,2.75
74.0740740740741,96,2979.51195555032,"l","speed","ga1999ma","1","o","a","0","1","0",56,3,700,"Tue Mar 21 12:01:48 2023",1,"eher leicht","speed","Experiment.osexp","Bild_s3_o_22.png",1080,"ma",1999,"ga","orangene","C:/Users/steff/Documents/Universität/Master Psychologie/SS 2022/Masterarbeit/Experiment/subject-3.csv",0,0,0,"a",5,5,"a","a",569.531499990262,569.531499990262,3,226156.818700023,329490.480100038,285220.334500016,178169.696199999,259090.097000008,330060.961000039,329182.465600024,24637.3964000377,259161.471200001,NA,4582.87199999904,NA,254095.024600043,329189.836700039,328608.767800033,328682.093500043,249812.901000027,285320.050100039,220224.925999995,5333.81060004467,43479.0046000271,56882.1391999954,71493.1514000054,115604.592400021,129536.731900007,285320.236800006,330061.042700021,288076.844600029,226156.853200053,188442.18860002,313034.739600029,314936.826799996,318262.245699996,214664.81290001,328308.015900024,NA,NA,NA,NA,NA,285312.726800039,178169.511400047,220217.781100015,328682.018400053,249812.829400005,285220.269700047,285164.934600005,328603.353600018,4582.99880003324,329490.661600023,4583.02520000143,329182.384000043,178168.716400047,259157.143200049,259123.611800023,5317.44190002792,NA,NA,138128.651300038,20,80446.8227998586,27,0,40,1,23,"Europäische Kunstgeschichte",5,3,2,3,3,2.75
71.4285714285714,96,2890.24362499393,"l","speed","ga1999ma","0","o","a","0","0","0",57,3,700,"Tue Mar 21 12:01:48 2023",1,"eher leicht","speed","Experiment.osexp","Bild_s3_o_24.png",1080,"ma",1999,"ga","orangene","C:/Users/steff/Documents/Universität/Master Psychologie/SS 2022/Masterarbeit/Experiment/subject-3.csv",0,1,0,"a",-5,-5,"l","l",479.998699971475,479.998699971475,3,226156.818700023,331244.049200031,285220.334500016,178169.696199999,259090.097000008,331724.852200015,330933.700000052,24637.3964000377,259161.471200001,NA,4582.87199999904,NA,254095.024600043,330940.658100008,330390.212700004,328682.093500043,249812.901000027,285320.050100039,220224.925999995,5333.81060004467,43479.0046000271,56882.1391999954,71493.1514000054,115604.592400021,129536.731900007,285320.236800006,331724.947500043,288076.844600029,226156.853200053,188442.18860002,313034.739600029,314936.826799996,318262.245699996,214664.81290001,330089.673500042,NA,NA,NA,NA,NA,285312.726800039,178169.511400047,220217.781100015,328682.018400053,249812.829400005,285220.269700047,285164.934600005,330384.836700046,4582.99880003324,331244.135900051,4583.02520000143,330933.616900002,178168.716400047,259157.143200049,259123.611800023,5317.44190002792,NA,NA,138128.651300038,20,80926.8214998301,28,0,40,1,23,"Europäische Kunstgeschichte",5,3,2,3,3,2.75
72.4137931034483,96,2806.4786965461,"l","speed","ga1999ma","1","b","l","0","1","0",58,3,700,"Tue Mar 21 12:01:48 2023",1,"eher leicht","speed","Experiment.osexp","Bild_s3_b_21.png",1080,"ma",1999,"ga","orangene","C:/Users/steff/Documents/Universität/Master Psychologie/SS 2022/Masterarbeit/Experiment/subject-3.csv",0,0,0,"a",0,0,"l","l",461.060700006783,461.060700006783,3,226156.818700023,332911.011899996,285220.334500016,178169.696199999,259090.097000008,333372.896600049,332601.549100014,24637.3964000377,259161.471200001,NA,4582.87199999904,NA,254095.024600043,332610.020500026,332035.097200016,328682.093500043,249812.901000027,285320.050100039,220224.925999995,5333.81060004467,43479.0046000271,56882.1391999954,71493.1514000054,115604.592400021,129536.731900007,285320.236800006,333372.975200007,288076.844600029,226156.853200053,188442.18860002,313034.739600029,314936.826799996,331734.915800043,214664.81290001,330089.673500042,NA,NA,NA,NA,NA,285312.726800039,178169.511400047,220217.781100015,328682.018400053,249812.829400005,285220.269700047,285164.934600005,332029.902300041,4582.99880003324,332911.093700037,4583.02520000143,332601.465200016,178168.716400047,259157.143200049,259123.611800023,5317.44190002792,NA,NA,138128.651300038,21,81387.8821998369,29,0,40,1,23,"Europäische Kunstgeschichte",5,3,2,3,3,2.75
73.3333333333333,96,2735.38983666222,"l","speed","ga1999ma","1","b","l","0","1","0",59,3,700,"Tue Mar 21 12:01:48 2023",1,"eher leicht","speed","Experiment.osexp","Bild_s3_b_13.png",1080,"ma",1999,"ga","orangene","C:/Users/steff/Documents/Universität/Master Psychologie/SS 2022/Masterarbeit/Experiment/subject-3.csv",0,0,0,"a",5,5,"l","l",673.812900029588,673.812900029588,3,226156.818700023,334554.144399997,285220.334500016,178169.696199999,259090.097000008,335228.849200008,334246.20970001,24637.3964000377,259161.471200001,NA,4582.87199999904,NA,254095.024600043,334253.440800007,333698.874299997,328682.093500043,249812.901000027,285320.050100039,220224.925999995,5333.81060004467,43479.0046000271,56882.1391999954,71493.1514000054,115604.592400021,129536.731900007,285320.236800006,335228.925700008,288076.844600029,226156.853200053,188442.18860002,313034.739600029,314936.826799996,331734.915800043,214664.81290001,333398.239600006,NA,NA,NA,NA,NA,285312.726800039,178169.511400047,220217.781100015,328682.018400053,249812.829400005,285220.269700047,285164.934600005,333693.471700011,4582.99880003324,334554.316000023,4583.02520000143,334246.124800004,178168.716400047,259157.143200049,259123.611800023,5317.44190002792,NA,NA,138128.651300038,22,82061.6950998665,30,0,40,1,23,"Europäische Kunstgeschichte",5,3,2,3,3,2.75
74.1935483870968,96,2663.72809677024,"l","speed","ga1999ma","1","b","l","0","1","0",60,3,700,"Tue Mar 21 12:01:48 2023",1,"eher leicht","speed","Experiment.osexp","Bild_s3_b_15.png",1080,"ma",1999,"ga","orangene","C:/Users/steff/Documents/Universität/Master Psychologie/SS 2022/Masterarbeit/Experiment/subject-3.csv",0,0,0,"a",10,10,"l","l",513.875900011044,513.875900011044,3,226156.818700023,336394.151300017,285220.334500016,178169.696199999,259090.097000008,336908.850000007,336086.36190003,24637.3964000377,259161.471200001,NA,4582.87199999904,NA,254095.024600043,336093.18830003,335539.748400042,328682.093500043,249812.901000027,285320.050100039,220224.925999995,5333.81060004467,43479.0046000271,56882.1391999954,71493.1514000054,115604.592400021,129536.731900007,285320.236800006,336908.927700017,288076.844600029,226156.853200053,188442.18860002,313034.739600029,314936.826799996,331734.915800043,214664.81290001,335239.358599996,NA,NA,NA,NA,NA,285312.726800039,178169.511400047,220217.781100015,328682.018400053,249812.829400005,285220.269700047,285164.934600005,335534.383500053,4582.99880003324,336394.242600014,4583.02520000143,336086.282400007,178168.716400047,259157.143200049,259123.611800023,5317.44190002792,NA,NA,138128.651300038,23,82575.5709998775,31,0,40,1,23,"Europäische Kunstgeschichte",5,3,2,3,3,2.75
75,96,2592.85947499666,"l","speed","ga1999ma","1","o","a","0","1","0",61,3,700,"Tue Mar 21 12:01:48 2023",1,"eher leicht","speed","Experiment.osexp","Bild_s3_o_18.png",1080,"ma",1999,"ga","orangene","C:/Users/steff/Documents/Universität/Master Psychologie/SS 2022/Masterarbeit/Experiment/subject-3.csv",0,0,0,"a",15,15,"a","a",395.932200015523,395.932200015523,3,226156.818700023,338080.027600052,285220.334500016,178169.696199999,259090.097000008,338476.85830004,337771.971500013,24637.3964000377,259161.471200001,NA,4582.87199999904,NA,254095.024600043,337779.347700009,337223.728300014,328682.093500043,249812.901000027,285320.050100039,220224.925999995,5333.81060004467,43479.0046000271,56882.1391999954,71493.1514000054,115604.592400021,129536.731900007,285320.236800006,338476.93200002,288076.844600029,226156.853200053,188442.18860002,313034.739600029,314936.826799996,331734.915800043,214664.81290001,336923.645600036,NA,NA,NA,NA,NA,285312.726800039,178169.511400047,220217.781100015,328682.018400053,249812.829400005,285220.269700047,285164.934600005,337218.49140001,4582.99880003324,338080.196900002,4583.02520000143,337771.887800016,178168.716400047,259157.143200049,259123.611800023,5317.44190002792,NA,NA,138128.651300038,24,82971.503199893,32,0,40,1,23,"Europäische Kunstgeschichte",5,3,2,3,3,2.75
75.7575757575758,96,2527.92596666382,"l","speed","ga1999ma","1","b","l","0","1","0",62,3,700,"Tue Mar 21 12:01:48 2023",1,"eher leicht","speed","Experiment.osexp","Bild_s3_b_7.png",1080,"ma",1999,"ga","orangene","C:/Users/steff/Documents/Universität/Master Psychologie/SS 2022/Masterarbeit/Experiment/subject-3.csv",0,0,0,"a",20,20,"l","l",450.053700013086,450.053700013086,3,226156.818700023,339657.980600023,285220.334500016,178169.696199999,259090.097000008,340108.853100042,339350.088100007,24637.3964000377,259161.471200001,NA,4582.87199999904,NA,254095.024600043,339356.906600005,338806.703700044,328682.093500043,249812.901000027,285320.050100039,220224.925999995,5333.81060004467,43479.0046000271,56882.1391999954,71493.1514000054,115604.592400021,129536.731900007,285320.236800006,340108.927600028,288076.844600029,226156.853200053,188442.18860002,313034.739600029,314936.826799996,331734.915800043,214664.81290001,338505.251800001,NA,NA,NA,NA,NA,285312.726800039,178169.511400047,220217.781100015,328682.018400053,249812.829400005,285220.269700047,285164.934600005,338801.290600037,4582.99880003324,339658.065500029,4583.02520000143,339350.009000045,178168.716400047,259157.143200049,259123.611800023,5317.44190002792,NA,NA,138128.651300038,25,83421.5568999061,33,0,40,1,23,"Europäische Kunstgeschichte",5,3,2,3,3,2.75
76.4705882352941,96,2465.66015293801,"l","speed","ga1999ma","1","b","l","0","1","0",63,3,700,"Tue Mar 21 12:01:48 2023",1,"eher leicht","speed","Experiment.osexp","Bild_s3_b_9.png",1080,"ma",1999,"ga","orangene","C:/Users/steff/Documents/Universität/Master Psychologie/SS 2022/Masterarbeit/Experiment/subject-3.csv",0,0,0,"a",25,25,"l","l",410.888299986254,410.888299986254,3,226156.818700023,341281.134700053,285220.334500016,178169.696199999,259090.097000008,341692.950199998,340973.152699997,24637.3964000377,259161.471200001,NA,4582.87199999904,NA,254095.024600043,340980.039500049,340435.993400053,328682.093500043,249812.901000027,285320.050100039,220224.925999995,5333.81060004467,43479.0046000271,56882.1391999954,71493.1514000054,115604.592400021,129536.731900007,285320.236800006,341693.030000024,288076.844600029,226156.853200053,188442.18860002,313034.739600029,314936.826799996,331734.915800043,214664.81290001,340135.797500028,NA,NA,NA,NA,NA,285312.726800039,178169.511400047,220217.781100015,328682.018400053,249812.829400005,285220.269700047,285164.934600005,340430.574600003,4582.99880003324,341281.240100041,4583.02520000143,340973.07030001,178168.716400047,259157.143200049,259123.611800023,5317.44190002792,NA,NA,138128.651300038,26,83832.4451998924,34,0,40,1,23,"Europäische Kunstgeschichte",5,3,2,3,3,2.75
74.2857142857143,96,2409.32097142629,"l","speed","ga1999ma","0","b","l","0","0","0",64,3,700,"Tue Mar 21 12:01:48 2023",2,"eher schwer","speed","Experiment.osexp","Bild_s2_b_16.png",1080,"ma",1999,"ga","orangene","C:/Users/steff/Documents/Universität/Master Psychologie/SS 2022/Masterarbeit/Experiment/subject-3.csv",0,1,0,"a",15,15,"a","a",493.788800027687,493.788800027687,3,226156.818700023,342894.174300018,285220.334500016,178169.696199999,259090.097000008,343389.033600048,342586.240500037,24637.3964000377,259161.471200001,NA,4582.87199999904,NA,254095.024600043,342593.308500014,342003.628100036,342076.92120003,249812.901000027,285320.050100039,220224.925999995,5333.81060004467,43479.0046000271,56882.1391999954,71493.1514000054,115604.592400021,129536.731900007,285320.236800006,343389.128700015,288076.844600029,226156.853200053,188442.18860002,313034.739600029,314936.826799996,331734.915800043,214664.81290001,341703.821400006,NA,NA,NA,NA,NA,285312.726800039,178169.511400047,220217.781100015,342076.849100005,249812.829400005,285220.269700047,285164.934600005,341998.320700019,4582.99880003324,342894.379400008,4583.02520000143,342586.162600026,178168.716400047,259157.143200049,259123.611800023,5317.44190002792,NA,NA,138128.651300038,26,84326.2339999201,35,0,40,1,23,"Europäische Kunstgeschichte",5,3,2,3,3,2.75
75,96,2356.38717222092,"l","speed","ga1999ma","1","b","l","0","1","0",65,3,700,"Tue Mar 21 12:01:48 2023",2,"eher schwer","speed","Experiment.osexp","Bild_s2_b_21.png",1080,"ma",1999,"ga","orangene","C:/Users/steff/Documents/Universität/Master Psychologie/SS 2022/Masterarbeit/Experiment/subject-3.csv",0,0,0,"a",20,20,"l","l",503.704200033098,503.704200033098,3,226156.818700023,344564.344600018,285220.334500016,178169.696199999,259090.097000008,345068.948000029,344255.551400012,24637.3964000377,259161.471200001,NA,4582.87199999904,NA,254095.024600043,344262.907400029,343704.536700039,342076.92120003,249812.901000027,285320.050100039,220224.925999995,5333.81060004467,43479.0046000271,56882.1391999954,71493.1514000054,115604.592400021,129536.731900007,285320.236800006,345069.02580004,288076.844600029,226156.853200053,188442.18860002,313034.739600029,314936.826799996,343403.373800043,214664.81290001,341703.821400006,NA,NA,NA,NA,NA,285312.726800039,178169.511400047,220217.781100015,342076.849100005,249812.829400005,285220.269700047,285164.934600005,343699.19850002,4582.99880003324,344564.426199999,4583.02520000143,344255.473600002,178168.716400047,259157.143200049,259123.611800023,5317.44190002792,NA,NA,138128.651300038,27,84829.9381999532,36,0,40,1,23,"Europäische Kunstgeschichte",5,3,2,3,3,2.75
72.972972972973,96,2301.86877297269,"l","speed","ga1999ma","0","o","a","0","0","0",66,3,700,"Tue Mar 21 12:01:48 2023",2,"eher schwer","speed","Experiment.osexp","Bild_s2_o_2.png",1080,"ma",1999,"ga","orangene","C:/Users/steff/Documents/Universität/Master Psychologie/SS 2022/Masterarbeit/Experiment/subject-3.csv",0,1,0,"a",10,10,"l","l",339.206400036346,339.206400036346,3,226156.818700023,346248.851900047,285220.334500016,178169.696199999,259090.097000008,346589.181100018,345940.875600034,24637.3964000377,259161.471200001,NA,4582.87199999904,NA,254095.024600043,345947.836200008,345384.002800041,342076.92120003,249812.901000027,285320.050100039,220224.925999995,5333.81060004467,43479.0046000271,56882.1391999954,71493.1514000054,115604.592400021,129536.731900007,285320.236800006,346589.275000035,288076.844600029,226156.853200053,188442.18860002,313034.739600029,314936.826799996,343403.373800043,214664.81290001,345083.759000001,NA,NA,NA,NA,NA,285312.726800039,178169.511400047,220217.781100015,342076.849100005,249812.829400005,285220.269700047,285164.934600005,345378.719800035,4582.99880003324,346248.938500008,4583.02520000143,345940.798000025,178168.716400047,259157.143200049,259123.611800023,5317.44190002792,NA,NA,138128.651300038,27,85169.1445999895,37,0,40,1,23,"Europäische Kunstgeschichte",5,3,2,3,3,2.75
73.6842105263158,96,2256.02775789479,"l","speed","ga1999ma","1","b","l","0","1","0",67,3,700,"Tue Mar 21 12:01:48 2023",2,"eher schwer","speed","Experiment.osexp","Bild_s2_b_7.png",1080,"ma",1999,"ga","orangene","C:/Users/steff/Documents/Universität/Master Psychologie/SS 2022/Masterarbeit/Experiment/subject-3.csv",0,0,0,"a",15,15,"l","l",559.910200012382,559.910200012382,3,226156.818700023,347756.135900039,285220.334500016,178169.696199999,259090.097000008,348316.80000003,347447.686600033,24637.3964000377,259161.471200001,NA,4582.87199999904,NA,254095.024600043,347455.019500048,346901.425600052,342076.92120003,249812.901000027,285320.050100039,220224.925999995,5333.81060004467,43479.0046000271,56882.1391999954,71493.1514000054,115604.592400021,129536.731900007,285320.236800006,348316.884700034,288076.844600029,226156.853200053,188442.18860002,313034.739600029,314936.826799996,346601.080399996,214664.81290001,345083.759000001,NA,NA,NA,NA,NA,285312.726800039,178169.511400047,220217.781100015,342076.849100005,249812.829400005,285220.269700047,285164.934600005,346896.031900018,4582.99880003324,347756.21620001,4583.02520000143,347447.604500048,178168.716400047,259157.143200049,259123.611800023,5317.44190002792,NA,NA,138128.651300038,28,85729.0548000019,38,0,40,1,23,"Europäische Kunstgeschichte",5,3,2,3,3,2.75
74.3589743589744,96,2214.94725128212,"l","speed","ga1999ma","1","o","a","0","1","0",68,3,700,"Tue Mar 21 12:01:48 2023",2,"eher schwer","speed","Experiment.osexp","Bild_s2_o_19.png",1080,"ma",1999,"ga","orangene","C:/Users/steff/Documents/Universität/Master Psychologie/SS 2022/Masterarbeit/Experiment/subject-3.csv",0,0,0,"a",20,20,"a","a",653.888000000734,653.888000000734,3,226156.818700023,349486.052100023,285220.334500016,178169.696199999,259090.097000008,350140.875400044,349178.02370002,24637.3964000377,259161.471200001,NA,4582.87199999904,NA,254095.024600043,349185.093100008,348638.084000035,342076.92120003,249812.901000027,285320.050100039,220224.925999995,5333.81060004467,43479.0046000271,56882.1391999954,71493.1514000054,115604.592400021,129536.731900007,285320.236800006,350140.954600007,288076.844600029,226156.853200053,188442.18860002,313034.739600029,314936.826799996,346601.080399996,214664.81290001,348337.574800011,NA,NA,NA,NA,NA,285312.726800039,178169.511400047,220217.781100015,342076.849100005,249812.829400005,285220.269700047,285164.934600005,348632.724300027,4582.99880003324,349486.225900007,4583.02520000143,349177.942300041,178168.716400047,259157.143200049,259123.611800023,5317.44190002792,NA,NA,138128.651300038,29,86382.9428000026,39,0,40,1,23,"Europäische Kunstgeschichte",5,3,2,3,3,2.75
75,96,2173.44827249908,"l","speed","ga1999ma","1","b","l","0","1","0",69,3,700,"Tue Mar 21 12:01:48 2023",2,"eher schwer","speed","Experiment.osexp","Bild_s2_b_13.png",1080,"ma",1999,"ga","orangene","C:/Users/steff/Documents/Universität/Master Psychologie/SS 2022/Masterarbeit/Experiment/subject-3.csv",0,0,0,"a",25,25,"l","l",554.98809996061,554.98809996061,3,226156.818700023,351313.041400048,285220.334500016,178169.696199999,259090.097000008,351868.884199997,351004.950700037,24637.3964000377,259161.471200001,NA,4582.87199999904,NA,254095.024600043,351012.062499998,350459.376400046,342076.92120003,249812.901000027,285320.050100039,220224.925999995,5333.81060004467,43479.0046000271,56882.1391999954,71493.1514000054,115604.592400021,129536.731900007,285320.236800006,351868.960399996,288076.844600029,226156.853200053,188442.18860002,313034.739600029,314936.826799996,346601.080399996,214664.81290001,350159.042900021,NA,NA,NA,NA,NA,285312.726800039,178169.511400047,220217.781100015,342076.849100005,249812.829400005,285220.269700047,285164.934600005,350454.115500033,4582.99880003324,351313.139800041,4583.02520000143,351004.868800053,178168.716400047,259157.143200049,259123.611800023,5317.44190002792,NA,NA,138128.651300038,30,86937.9308999632,40,0,40,1,23,"Europäische Kunstgeschichte",5,3,2,3,3,2.75
75.609756097561,96,2138.5256609746,"l","speed","ga1999ma","1","b","l","0","0","1",70,3,700,"Tue Mar 21 12:01:48 2023",2,"eher schwer","speed","Experiment.osexp","Bild_s2_b_23.png",1080,"ma",1999,"ga","orangene","C:/Users/steff/Documents/Universität/Master Psychologie/SS 2022/Masterarbeit/Experiment/subject-3.csv",0,0,0,"a",15,15,"l","l",741.621199995279,741.621199995279,3,226156.818700023,353062.288900022,285220.334500016,178169.696199999,259090.097000008,353804.875600035,352753.60940001,24637.3964000377,259161.471200001,NA,4582.87199999904,NA,254095.024600043,352760.731100047,352209.103300003,342076.92120003,249812.901000027,285320.050100039,220224.925999995,5333.81060004467,43479.0046000271,56882.1391999954,71493.1514000054,115604.592400021,129536.731900007,285320.236800006,353804.976000043,288076.844600029,226156.853200053,188442.18860002,313034.739600029,314936.826799996,346601.080399996,214664.81290001,351908.285900019,NA,NA,NA,NA,NA,285312.726800039,178169.511400047,220217.781100015,342076.849100005,249812.829400005,285220.269700047,285164.934600005,352203.787200036,4582.99880003324,353062.490500044,4583.02520000143,352753.531599999,178168.716400047,259157.143200049,259123.611800023,5317.44190002792,NA,NA,138128.651300038,31,87679.5520999585,41,0,40,1,23,"Europäische Kunstgeschichte",5,3,2,3,3,2.75
76.1904761904762,96,2103.41022619035,"l","speed","ga1999ma","1","o","a","0","1","0",71,3,700,"Tue Mar 21 12:01:48 2023",2,"eher schwer","speed","Experiment.osexp","Bild_s2_o_15.png",1080,"ma",1999,"ga","orangene","C:/Users/steff/Documents/Universität/Master Psychologie/SS 2022/Masterarbeit/Experiment/subject-3.csv",0,0,0,"a",20,20,"a","a",663.677400036249,663.677400036249,3,226156.818700023,354980.346099997,285220.334500016,178169.696199999,259090.097000008,355645.055600035,354672.636700037,24637.3964000377,259161.471200001,NA,4582.87199999904,NA,254095.024600043,354679.5499,354124.204300053,342076.92120003,249812.901000027,285320.050100039,220224.925999995,5333.81060004467,43479.0046000271,56882.1391999954,71493.1514000054,115604.592400021,129536.731900007,285320.236800006,355645.132600039,288076.844600029,226156.853200053,188442.18860002,353823.066000012,314936.826799996,346601.080399996,214664.81290001,351908.285900019,NA,NA,NA,NA,NA,285312.726800039,178169.511400047,220217.781100015,342076.849100005,249812.829400005,285220.269700047,285164.934600005,354118.892600003,4582.99880003324,354980.439800012,4583.02520000143,354672.557400016,178168.716400047,259157.143200049,259123.611800023,5317.44190002792,NA,NA,138128.651300038,32,88343.2294999948,42,0,40,1,23,"Europäische Kunstgeschichte",5,3,2,3,3,2.75
76.7441860465116,96,2063.02946511531,"l","speed","ga1999ma","1","b","l","0","1","0",72,3,700,"Tue Mar 21 12:01:48 2023",3,"sehr schwer","speed","Experiment.osexp","Bild_s1_b_3.png",1080,"ma",1999,"ga","orangene","C:/Users/steff/Documents/Universität/Master Psychologie/SS 2022/Masterarbeit/Experiment/subject-3.csv",0,0,0,"a",25,25,"l","l",367.037499963771,367.037499963771,3,226156.818700023,356844.987100048,285220.334500016,178169.696199999,259090.097000008,357212.763500051,356537.019800046,24637.3964000377,259161.471200001,NA,4582.87199999904,NA,254095.024600043,356543.920900032,355957.319500041,356036.739300005,249812.901000027,285320.050100039,220224.925999995,5333.81060004467,43479.0046000271,56882.1391999954,71493.1514000054,115604.592400021,129536.731900007,285320.236800006,357212.837600033,288076.844600029,226156.853200053,188442.18860002,353823.066000012,314936.826799996,346601.080399996,214664.81290001,355656.55340004,NA,NA,NA,NA,NA,285312.726800039,178169.511400047,220217.781100015,356036.669200053,249812.829400005,285220.269700047,285164.934600005,355951.9707,4582.99880003324,356845.070400042,4583.02520000143,356536.930200004,178168.716400047,259157.143200049,259123.611800023,5317.44190002792,NA,NA,138128.651300038,33,88710.2669999585,43,0,40,1,23,"Europäische Kunstgeschichte",5,3,2,3,3,2.75
77.2727272727273,96,2025.77134318099,"l","speed","ga1999ma","1","o","a","0","1","0",73,3,700,"Tue Mar 21 12:01:48 2023",3,"sehr schwer","speed","Experiment.osexp","Bild_s1_o_6.png",1080,"ma",1999,"ga","orangene","C:/Users/steff/Documents/Universität/Master Psychologie/SS 2022/Masterarbeit/Experiment/subject-3.csv",0,0,0,"a",30,30,"a","a",423.672100005206,423.672100005206,3,226156.818700023,358388.360700046,285220.334500016,178169.696199999,259090.097000008,358813.138800033,358080.38140001,24637.3964000377,259161.471200001,NA,4582.87199999904,NA,254095.024600043,358087.760000024,357528.21910003,356036.739300005,249812.901000027,285320.050100039,220224.925999995,5333.81060004467,43479.0046000271,56882.1391999954,71493.1514000054,115604.592400021,129536.731900007,285320.236800006,358813.214100024,288076.844600029,226156.853200053,188442.18860002,353823.066000012,314936.826799996,346601.080399996,214664.81290001,357227.894700016,NA,NA,NA,NA,NA,285312.726800039,178169.511400047,220217.781100015,356036.669200053,249812.829400005,285220.269700047,285164.934600005,357522.85150002,4582.99880003324,358388.448100013,4583.02520000143,358080.303900002,178168.716400047,259157.143200049,259123.611800023,5317.44190002792,NA,NA,138128.651300038,34,89133.9390999638,44,0,40,1,23,"Europäische Kunstgeschichte",5,3,2,3,3,2.75
75.5555555555556,96,1993.62593333289,"l","speed","ga1999ma","0","b","l","0","0","0",74,3,700,"Tue Mar 21 12:01:48 2023",3,"sehr schwer","speed","Experiment.osexp","Bild_s1_b_20.png",1080,"ma",1999,"ga","orangene","C:/Users/steff/Documents/Universität/Master Psychologie/SS 2022/Masterarbeit/Experiment/subject-3.csv",0,1,0,"a",20,20,"a","a",579.227900016122,579.227900016122,3,226156.818700023,359976.795000024,285220.334500016,178169.696199999,259090.097000008,360557.032800047,359668.991100043,24637.3964000377,259161.471200001,NA,4582.87199999904,NA,254095.024600043,359676.241700014,359129.277200031,356036.739300005,249812.901000027,285320.050100039,220224.925999995,5333.81060004467,43479.0046000271,56882.1391999954,71493.1514000054,115604.592400021,129536.731900007,285320.236800006,360557.131000038,288076.844600029,226156.853200053,188442.18860002,353823.066000012,314936.826799996,346601.080399996,214664.81290001,358828.669600014,NA,NA,NA,NA,NA,285312.726800039,178169.511400047,220217.781100015,356036.669200053,249812.829400005,285220.269700047,285164.934600005,359123.929299996,4582.99880003324,359976.884400006,4583.02520000143,359668.914100039,178168.716400047,259157.143200049,259123.611800023,5317.44190002792,NA,NA,138128.651300038,34,89713.1669999799,45,0,40,1,23,"Europäische Kunstgeschichte",5,3,2,3,3,2.75
76.0869565217391,96,1958.84387391245,"l","speed","ga1999ma","1","b","l","0","1","0",75,3,700,"Tue Mar 21 12:01:48 2023",3,"sehr schwer","speed","Experiment.osexp","Bild_s1_b_4.png",1080,"ma",1999,"ga","orangene","C:/Users/steff/Documents/Universität/Master Psychologie/SS 2022/Masterarbeit/Experiment/subject-3.csv",0,0,0,"a",25,25,"l","l",393.651199992746,393.651199992746,3,226156.818700023,361730.257900024,285220.334500016,178169.696199999,259090.097000008,362124.9236,361422.427000012,24637.3964000377,259161.471200001,NA,4582.87199999904,NA,254095.024600043,361429.280100041,360880.883100035,356036.739300005,249812.901000027,285320.050100039,220224.925999995,5333.81060004467,43479.0046000271,56882.1391999954,71493.1514000054,115604.592400021,129536.731900007,285320.236800006,362124.997800041,288076.844600029,226156.853200053,188442.18860002,353823.066000012,314936.826799996,360580.083700013,214664.81290001,358828.669600014,NA,NA,NA,NA,NA,285312.726800039,178169.511400047,220217.781100015,356036.669200053,249812.829400005,285220.269700047,285164.934600005,360875.520100002,4582.99880003324,361730.460200051,4583.02520000143,361422.347600048,178168.716400047,259157.143200049,259123.611800023,5317.44190002792,NA,NA,138128.651300038,35,90106.8181999726,46,0,40,1,23,"Europäische Kunstgeschichte",5,3,2,3,3,2.75
76.5957446808511,96,1934.26592978698,"l","speed","ga1999ma","1","o","a","0","0","1",76,3,700,"Tue Mar 21 12:01:48 2023",3,"sehr schwer","speed","Experiment.osexp","Bild_s1_o_21.png",1080,"ma",1999,"ga","orangene","C:/Users/steff/Documents/Universität/Master Psychologie/SS 2022/Masterarbeit/Experiment/subject-3.csv",0,0,0,"a",15,15,"a","a",803.680500015616,803.680500015616,3,226156.818700023,363288.343200053,285220.334500016,178169.696199999,259090.097000008,364092.884900048,362980.439700012,24637.3964000377,259161.471200001,NA,4582.87199999904,NA,254095.024600043,362987.758400035,362440.325800038,356036.739300005,249812.901000027,285320.050100039,220224.925999995,5333.81060004467,43479.0046000271,56882.1391999954,71493.1514000054,115604.592400021,129536.731900007,285320.236800006,364092.983400042,288076.844600029,226156.853200053,188442.18860002,353823.066000012,314936.826799996,360580.083700013,214664.81290001,362139.935000043,NA,NA,NA,NA,NA,285312.726800039,178169.511400047,220217.781100015,356036.669200053,249812.829400005,285220.269700047,285164.934600005,362434.925300011,4582.99880003324,363288.427899999,4583.02520000143,362980.361599999,178168.716400047,259157.143200049,259123.611800023,5317.44190002792,NA,NA,138128.651300038,36,90910.4986999882,47,0,40,1,23,"Europäische Kunstgeschichte",5,3,2,3,3,2.75
77.0833333333333,96,1904.0406187487,"l","speed","ga1999ma","1","o","a","0","1","0",77,3,700,"Tue Mar 21 12:01:48 2023",3,"sehr schwer","speed","Experiment.osexp","Bild_s1_o_10.png",1080,"ma",1999,"ga","orangene","C:/Users/steff/Documents/Universität/Master Psychologie/SS 2022/Masterarbeit/Experiment/subject-3.csv",0,0,0,"a",20,20,"a","a",483.450999949127,483.450999949127,3,226156.818700023,365288.567300013,285220.334500016,178169.696199999,259090.097000008,365772.980000009,364980.496200034,24637.3964000377,259161.471200001,NA,4582.87199999904,NA,254095.024600043,364987.384700042,364418.382300006,356036.739300005,249812.901000027,285320.050100039,220224.925999995,5333.81060004467,43479.0046000271,56882.1391999954,71493.1514000054,115604.592400021,129536.731900007,285320.236800006,365773.061100044,288076.844600029,226156.853200053,188442.18860002,364117.907100008,314936.826799996,360580.083700013,214664.81290001,362139.935000043,NA,NA,NA,NA,NA,285312.726800039,178169.511400047,220217.781100015,356036.669200053,249812.829400005,285220.269700047,285164.934600005,364413.153900008,4582.99880003324,365288.656200049,4583.02520000143,364980.389200035,178168.716400047,259157.143200049,259123.611800023,5317.44190002792,NA,NA,138128.651300038,37,91393.9496999374,48,0,40,1,23,"Europäische Kunstgeschichte",5,3,2,3,3,2.75
77.5510204081633,96,1877.1753204067,"l","speed","ga1999ma","1","o","a","0","1","0",78,3,700,"Tue Mar 21 12:01:48 2023",3,"sehr schwer","speed","Experiment.osexp","Bild_s1_o_25.png",1080,"ma",1999,"ga","orangene","C:/Users/steff/Documents/Universität/Master Psychologie/SS 2022/Masterarbeit/Experiment/subject-3.csv",0,0,0,"a",25,25,"a","a",587.640999990981,587.640999990981,3,226156.818700023,366944.381600013,285220.334500016,178169.696199999,259090.097000008,367533.015499997,366636.529100011,24637.3964000377,259161.471200001,NA,4582.87199999904,NA,254095.024600043,366643.509000016,366093.548600038,356036.739300005,249812.901000027,285320.050100039,220224.925999995,5333.81060004467,43479.0046000271,56882.1391999954,71493.1514000054,115604.592400021,129536.731900007,285320.236800006,367533.090100042,288076.844600029,226156.853200053,188442.18860002,364117.907100008,314936.826799996,360580.083700013,214664.81290001,365792.837300047,NA,NA,NA,NA,NA,285312.726800039,178169.511400047,220217.781100015,356036.669200053,249812.829400005,285220.269700047,285164.934600005,366088.173000026,4582.99880003324,366944.467400026,4583.02520000143,366636.445300013,178168.716400047,259157.143200049,259123.611800023,5317.44190002792,NA,NA,138128.651300038,38,91981.5906999284,49,0,40,1,23,"Europäische Kunstgeschichte",5,3,2,3,3,2.75
