"accuracy","anzahl_gruppen","avg_rt","blauetaste","block","code","correct","correct_colour","correct_response","correct1","correct2","correct3","count_bildstimulus_3_1","count_block","cutoff","datetime","difficulty","difficulty_f","erstebedingung","experiment_file","filename","height","id_geburtsort","id_jahr","id_vater","linketaste","logfile","loose1","loose2","loose3","orangenetaste","punkte1","punkteimblock","response","response_tasteresponse_3_1","response_time","response_time_tasteresponse_3_1","subject_nr","time_bildershuffle","time_bildstimulus_3_1","time_block","time_block_tut","time_blockwerte_zuruecksetzten","time_cutoff_werte_und_punkte_3_1","time_definecorrectcolour_3_1","time_eingabemaske_kuerzel_python","time_ende_tutorial_1","time_ende_experimentierungsphase","time_experiment","time_feedback_serie","time_feedback_tutorial","time_fixationcross_3_1","time_grauesbild_3_1","time_gruppe_block","time_gruppe_tutorial","time_instruktionen_block","time_instruktionen_tutorial_1","time_introduction_1","time_introduction_2_1","time_introduction_3_punkte","time_introduction_3_speed","time_introduction_4_accuracy","time_introduction_5_feedback","time_leertaste_fuer_naechsten_bildschirm","time_logger_3_1","time_loop_block","time_loop_block_tut","time_minifeedbacknegativ_acc","time_minifeedbacknegativ_speed_slow","time_minifeedbacknegativ_speed_slowandwrong","time_minifeedbacknegativ_speed_wrong","time_minifeedbackpositiv_acc","time_minifeedbackpositiv_speed","time_new_inline_script","time_pause_zwischen_serie_1","time_pause_zwischen_serie_2","time_reset_feedback","time_reset_feedback_1","time_sequenz_block","time_sequenz_block_tut","time_sequenz_block_tut_1","time_sequenz_gruppe","time_sequenz_gruppe_tut","time_sequenz_serie","time_serie","time_set_to_zero","time_start","time_tasteresponse_3_1","time_testloopprepareglitchtutorial","time_trial_3_1","time_tutorial","time_tutorial_ende","time_tutorial_wiederholungscheck","time_vorgeplaenkel","time_warnhinweis_3sek","time_warnhinweis_5sek","time_warnung_tutorial_1","total_correct","total_response_time","total_responses","tutorial","tutorialpunkte","geschlecht","alter","studiengang","bildungsabschluss","haendig1","haendig2","haendig3","haendig4","haendig_mean"
88.8888888888889,96,164347.646077784,"a","accuracy","an1999ma","0","b","a","0","0","0",0,1,700,"Wed Apr 19 12:05:45 2023",3,"sehr schwer","accuracy","Experiment.osexp","Bild_s1_b_23.png",1080,"ma",1999,"an","blaue","C:/Users/steff/Documents/Universität/Master Psychologie/SS 2022/Masterarbeit/Experiment/subject-14.csv",1,0,0,"l",-10,-10,"l","l",1247.55909992382,1247.55909992382,14,NA,351289.438900072,NA,330831.246700138,NA,352537.570200395,350981.179499999,100362.083500251,NA,NA,15140.7890003175,NA,NA,350988.311900292,NA,NA,350458.709900267,NA,330925.646299962,15956.6558999941,124343.598300125,153119.019300211,227090.33669997,244113.007400185,250766.162600368,330925.825800281,352537.641700357,NA,350457.755200099,NA,NA,NA,NA,NA,NA,NA,NA,NA,NA,NA,NA,330831.052600406,330918.430600315,NA,350458.667300176,NA,NA,NA,15141.9401001185,351289.52610027,15141.9679000974,350980.916500092,330830.249499995,NA,NA,15937.3225001618,NA,NA,264013.393600006,8,1479128.81470006,9,1,0,1,23,"Physik",5,3,3,3,3,3
80,96,148002.594620036,"a","accuracy","an1999ma","0","b","a","0","0","0",1,1,700,"Wed Apr 19 12:05:45 2023",3,"sehr schwer","accuracy","Experiment.osexp","Bild_s1_b_18.png",1080,"ma",1999,"an","blaue","C:/Users/steff/Documents/Universität/Master Psychologie/SS 2022/Masterarbeit/Experiment/subject-14.csv",1,0,0,"l",-20,-20,"l","l",897.13150030002,897.13150030002,14,NA,353703.815100249,NA,330831.246700138,NA,354601.67740006,353393.96490017,100362.083500251,NA,NA,15140.7890003175,NA,NA,353402.886200231,352859.433600213,NA,350458.709900267,NA,330925.646299962,15956.6558999941,124343.598300125,153119.019300211,227090.33669997,244113.007400185,250766.162600368,330925.825800281,354601.74780013,NA,350457.755200099,352558.766500093,NA,NA,NA,NA,NA,NA,NA,NA,NA,NA,NA,330831.052600406,330918.430600315,NA,350458.667300176,NA,NA,352853.995200247,15141.9401001185,353703.948900104,15141.9679000974,353393.884700257,330830.249499995,NA,NA,15937.3225001618,NA,NA,264013.393600006,8,1480025.94620036,10,1,0,1,23,"Physik",5,3,3,3,3,3
81.8181818181818,96,134618.737381883,"a","accuracy","an1999ma","1","o","l","1","0","0",2,1,700,"Wed Apr 19 12:05:45 2023",2,"eher schwer","accuracy","Experiment.osexp","Bild_s2_o_23.png",1080,"ma",1999,"an","blaue","C:/Users/steff/Documents/Universität/Master Psychologie/SS 2022/Masterarbeit/Experiment/subject-14.csv",0,0,0,"l",-15,-15,"l","l",780.165000353009,780.165000353009,14,NA,355804.686200339,NA,330831.246700138,NA,356585.530200042,355496.810600162,100362.083500251,NA,NA,15140.7890003175,NA,NA,355503.847000189,354927.443800028,NA,355001.079699956,NA,330925.646299962,15956.6558999941,124343.598300125,153119.019300211,227090.33669997,244113.007400185,250766.162600368,330925.825800281,356585.602400359,NA,350457.755200099,354626.650200225,NA,NA,NA,NA,NA,NA,NA,NA,NA,NA,NA,330831.052600406,330918.430600315,NA,355001.002999954,NA,NA,354921.833400149,15141.9401001185,355804.882999975,15141.9679000974,355496.732000262,330830.249499995,NA,NA,15937.3225001618,NA,NA,264013.393600006,9,1480806.11120071,11,1,0,1,23,"Physik",5,3,3,3,3,3
83.3333333333333,96,123448.124958396,"a","accuracy","an1999ma","1","b","a","1","0","0",3,1,700,"Wed Apr 19 12:05:45 2023",2,"eher schwer","accuracy","Experiment.osexp","Bild_s2_b_16.png",1080,"ma",1999,"an","blaue","C:/Users/steff/Documents/Universität/Master Psychologie/SS 2022/Masterarbeit/Experiment/subject-14.csv",0,0,0,"l",-10,-10,"a","a",571.388300042599,571.388300042599,14,NA,357741.490600165,NA,330831.246700138,NA,358313.659300096,357433.266100008,100362.083500251,NA,NA,15140.7890003175,NA,NA,357440.287600271,356901.964700315,NA,355001.079699956,NA,330925.646299962,15956.6558999941,124343.598300125,153119.019300211,227090.33669997,244113.007400185,250766.162600368,330925.825800281,358313.729300164,NA,350457.755200099,354626.650200225,NA,NA,NA,356601.727200206,NA,NA,NA,NA,NA,NA,NA,330831.052600406,330918.430600315,NA,355001.002999954,NA,NA,356896.643999964,15141.9401001185,357741.684600245,15141.9679000974,357433.186599985,330830.249499995,NA,NA,15937.3225001618,NA,NA,264013.393600006,10,1481377.49950076,12,1,0,1,23,"Physik",5,3,3,3,3,3
84.6153846153846,96,114005.251084669,"a","accuracy","an1999ma","1","o","l","1","0","0",4,1,700,"Wed Apr 19 12:05:45 2023",1,"eher leicht","accuracy","Experiment.osexp","Bild_s3_o_11.png",1080,"ma",1999,"an","blaue","C:/Users/steff/Documents/Universität/Master Psychologie/SS 2022/Masterarbeit/Experiment/subject-14.csv",0,0,0,"l",-5,-5,"l","l",690.764599945396,690.764599945396,14,NA,359510.221400298,NA,330831.246700138,NA,360201.499300078,359202.133000363,100362.083500251,NA,NA,15140.7890003175,NA,NA,359209.051300306,358634.645699989,NA,358709.02690012,NA,330925.646299962,15956.6558999941,124343.598300125,153119.019300211,227090.33669997,244113.007400185,250766.162600368,330925.825800281,360201.572100166,NA,350457.755200099,354626.650200225,NA,NA,NA,358333.955600392,NA,NA,NA,NA,NA,NA,NA,330831.052600406,330918.430600315,NA,358708.954700269,NA,NA,358629.227200057,15141.9401001185,359510.310700163,15141.9679000974,359202.050700318,330830.249499995,NA,NA,15937.3225001618,NA,NA,264013.393600006,11,1482068.2641007,13,1,0,1,23,"Physik",5,3,3,3,3,3
85.7142857142857,96,105918.451707178,"a","accuracy","an1999ma","1","o","l","1","0","0",5,1,700,"Wed Apr 19 12:05:45 2023",1,"eher leicht","accuracy","Experiment.osexp","Bild_s3_o_25.png",1080,"ma",1999,"an","blaue","C:/Users/steff/Documents/Universität/Master Psychologie/SS 2022/Masterarbeit/Experiment/subject-14.csv",0,0,0,"l",0,0,"l","l",790.059799794108,790.059799794108,14,NA,361362.745200284,NA,330831.246700138,NA,362153.720300179,361054.204200394,100362.083500251,NA,NA,15140.7890003175,NA,NA,361061.611700337,360523.266900331,NA,358709.02690012,NA,330925.646299962,15956.6558999941,124343.598300125,153119.019300211,227090.33669997,244113.007400185,250766.162600368,330925.825800281,362153.792000376,NA,350457.755200099,354626.650200225,NA,NA,NA,360221.865199972,NA,NA,NA,NA,NA,NA,NA,330831.052600406,330918.430600315,NA,358708.954700269,NA,NA,360517.828100361,15141.9401001185,361362.982000224,15141.9679000974,361054.060300346,330830.249499995,NA,NA,15937.3225001618,NA,NA,264013.393600006,12,1482858.32390049,14,1,0,1,23,"Physik",5,3,3,3,3,3
86.6666666666667,96,98903.7209933624,"a","accuracy","an1999ma","1","o","l","1","0","0",6,1,700,"Wed Apr 19 12:05:45 2023",0,"sehr leicht","accuracy","Experiment.osexp","Bild_s4_o_16.png",1080,"ma",1999,"an","blaue","C:/Users/steff/Documents/Universität/Master Psychologie/SS 2022/Masterarbeit/Experiment/subject-14.csv",0,0,0,"l",5,5,"l","l",697.490999940783,697.490999940783,14,NA,363375.497099943,NA,330831.246700138,NA,364073.55890004,363067.176199984,100362.083500251,NA,NA,15140.7890003175,NA,NA,363074.509200174,362493.058300111,NA,362572.52799999,NA,330925.646299962,15956.6558999941,124343.598300125,153119.019300211,227090.33669997,244113.007400185,250766.162600368,330925.825800281,364073.627999984,NA,350457.755200099,354626.650200225,NA,NA,NA,362192.126499955,NA,NA,NA,NA,NA,NA,NA,330831.052600406,330918.430600315,NA,362572.450200096,NA,NA,362487.621000037,15141.9401001185,363375.578700099,15141.9679000974,363067.093700171,330830.249499995,NA,NA,15937.3225001618,NA,NA,264013.393600006,13,1483555.81490044,15,1,0,1,23,"Physik",5,3,3,3,3,3
87.5,96,92759.6394562861,"a","accuracy","an1999ma","1","b","a","1","0","0",7,1,700,"Wed Apr 19 12:05:45 2023",0,"sehr leicht","accuracy","Experiment.osexp","Bild_s4_b_19.png",1080,"ma",1999,"an","blaue","C:/Users/steff/Documents/Universität/Master Psychologie/SS 2022/Masterarbeit/Experiment/subject-14.csv",0,0,0,"l",10,10,"a","a",598.416400142014,598.416400142014,14,NA,365234.467600007,NA,330831.246700138,NA,365833.535800222,364925.734800287,100362.083500251,NA,NA,15140.7890003175,NA,NA,364932.978400029,364394.851100165,NA,362572.52799999,NA,330925.646299962,15956.6558999941,124343.598300125,153119.019300211,227090.33669997,244113.007400185,250766.162600368,330925.825800281,365833.606600296,NA,350457.755200099,354626.650200225,NA,NA,NA,364094.13920017,NA,NA,NA,NA,NA,NA,NA,330831.052600406,330918.430600315,NA,362572.450200096,NA,NA,364389.373300131,15141.9401001185,365234.648200218,15141.9679000974,364925.656700041,330830.249499995,NA,NA,15937.3225001618,NA,NA,264013.393600006,14,1484154.23130058,16,1,0,1,23,"Physik",5,3,3,3,3,3
88.2352941176471,96,87339.7030117922,"a","accuracy","an1999ma","1","o","l","1","0","0",8,1,700,"Wed Apr 19 12:05:45 2023",0,"sehr leicht","accuracy","Experiment.osexp","Bild_s4_o_8.png",1080,"ma",1999,"an","blaue","C:/Users/steff/Documents/Universität/Master Psychologie/SS 2022/Masterarbeit/Experiment/subject-14.csv",0,0,0,"l",15,15,"l","l",620.719899889082,620.719899889082,14,NA,367036.261300091,NA,330831.246700138,NA,367657.633200288,366728.437500075,100362.083500251,NA,NA,15140.7890003175,NA,NA,366735.610899981,366166.583800223,NA,366239.661000203,NA,330925.646299962,15956.6558999941,124343.598300125,153119.019300211,227090.33669997,244113.007400185,250766.162600368,330925.825800281,367657.705300022,NA,350457.755200099,354626.650200225,NA,NA,NA,365865.751100238,NA,NA,NA,NA,NA,NA,NA,330831.052600406,330918.430600315,NA,366239.587600343,NA,NA,366161.049799994,15141.9401001185,367036.341800354,15141.9679000974,366728.358800057,330830.249499995,NA,NA,15937.3225001618,NA,NA,264013.393600006,15,1484774.95120047,17,1,0,1,23,"Physik",5,3,3,3,3,3
83.3333333333333,96,82529.3763722552,"a","accuracy","an1999ma","0","b","a","0","0","0",9,1,700,"Wed Apr 19 12:05:45 2023",0,"sehr leicht","accuracy","Experiment.osexp","Bild_s4_b_12.png",1080,"ma",1999,"an","blaue","C:/Users/steff/Documents/Universität/Master Psychologie/SS 2022/Masterarbeit/Experiment/subject-14.csv",1,0,0,"l",5,5,"l","l",753.8235001266,753.8235001266,14,NA,368839.065900072,NA,330831.246700138,NA,369593.592999969,368531.025300268,100362.083500251,NA,NA,15140.7890003175,NA,NA,368538.200300187,367997.930800077,NA,366239.661000203,NA,330925.646299962,15956.6558999941,124343.598300125,153119.019300211,227090.33669997,244113.007400185,250766.162600368,330925.825800281,369593.663400039,NA,350457.755200099,354626.650200225,NA,NA,NA,367697.407400236,NA,NA,NA,NA,NA,NA,NA,330831.052600406,330918.430600315,NA,366239.587600343,NA,NA,367992.604600266,15141.9401001185,368839.238500223,15141.9679000974,368530.946700368,330830.249499995,NA,NA,15937.3225001618,NA,NA,264013.393600006,15,1485528.77470059,18,1,0,1,23,"Physik",5,3,3,3,3,3
84.2105263157895,96,78215.4122631948,"a","accuracy","an1999ma","1","b","a","1","0","0",10,1,700,"Wed Apr 19 12:05:45 2023",1,"eher leicht","accuracy","Experiment.osexp","Bild_s3_b_22.png",1080,"ma",1999,"an","blaue","C:/Users/steff/Documents/Universität/Master Psychologie/SS 2022/Masterarbeit/Experiment/subject-14.csv",0,0,0,"l",10,10,"a","a",564.058300107718,564.058300107718,14,NA,370804.818199947,NA,330831.246700138,NA,371369.639500044,370496.120300144,100362.083500251,NA,NA,15140.7890003175,NA,NA,370503.607199993,369919.562000316,NA,369993.157900404,NA,330925.646299962,15956.6558999941,124343.598300125,153119.019300211,227090.33669997,244113.007400185,250766.162600368,330925.825800281,371369.70890034,NA,350457.755200099,369618.810200132,NA,NA,NA,367697.407400236,NA,NA,NA,NA,NA,NA,NA,330831.052600406,330918.430600315,NA,369993.082900066,NA,NA,369914.071599953,15141.9401001185,370805.009400006,15141.9679000974,370496.040600352,330830.249499995,NA,NA,15937.3225001618,NA,NA,264013.393600006,16,1486092.8330007,19,1,0,1,23,"Physik",5,3,3,3,3,3
85,96,74334.901680029,"a","accuracy","an1999ma","1","o","l","1","0","0",11,1,700,"Wed Apr 19 12:05:45 2023",1,"eher leicht","accuracy","Experiment.osexp","Bild_s3_o_18.png",1080,"ma",1999,"an","blaue","C:/Users/steff/Documents/Universität/Master Psychologie/SS 2022/Masterarbeit/Experiment/subject-14.csv",0,0,0,"l",15,15,"l","l",605.200599879026,605.200599879026,14,NA,372539.76980038,NA,330831.246700138,NA,373145.74940037,372231.633800082,100362.083500251,NA,NA,15140.7890003175,NA,NA,372239.052600227,371699.087500107,NA,369993.157900404,NA,330925.646299962,15956.6558999941,124343.598300125,153119.019300211,227090.33669997,244113.007400185,250766.162600368,330925.825800281,373145.8188002,NA,350457.755200099,369618.810200132,NA,NA,NA,371398.552699946,NA,NA,NA,NA,NA,NA,NA,330831.052600406,330918.430600315,NA,369993.082900066,NA,NA,371693.580700085,15141.9401001185,372539.864800405,15141.9679000974,372231.555100065,330830.249499995,NA,NA,15937.3225001618,NA,NA,264013.393600006,17,1486698.03360058,20,1,0,1,23,"Physik",5,3,3,3,3,3
85.7142857142857,96,70834.0859000261,"a","accuracy","an1999ma","1","o","l","1","0","0",12,1,700,"Wed Apr 19 12:05:45 2023",2,"eher schwer","accuracy","Experiment.osexp","Bild_s2_o_13.png",1080,"ma",1999,"an","blaue","C:/Users/steff/Documents/Universität/Master Psychologie/SS 2022/Masterarbeit/Experiment/subject-14.csv",0,0,0,"l",20,20,"l","l",817.770299967378,817.770299967378,14,NA,374343.216100242,NA,330831.246700138,NA,375161.635200027,374035.250599962,100362.083500251,NA,NA,15140.7890003175,NA,NA,374042.556399945,373462.189400103,NA,373537.557400297,NA,330925.646299962,15956.6558999941,124343.598300125,153119.019300211,227090.33669997,244113.007400185,250766.162600368,330925.825800281,375161.707800347,NA,350457.755200099,369618.810200132,NA,NA,NA,373161.657900084,NA,NA,NA,NA,NA,NA,NA,330831.052600406,330918.430600315,NA,373537.485700101,NA,NA,373456.780100241,15141.9401001185,374343.299400061,15141.9679000974,374035.171800293,330830.249499995,NA,NA,15937.3225001618,NA,NA,264013.393600006,18,1487515.80390055,21,1,0,1,23,"Physik",5,3,3,3,3,3
86.3636363636364,96,67653.6941182038,"a","accuracy","an1999ma","1","o","l","1","0","0",13,1,700,"Wed Apr 19 12:05:45 2023",2,"eher schwer","accuracy","Experiment.osexp","Bild_s2_o_25.png",1080,"ma",1999,"an","blaue","C:/Users/steff/Documents/Universität/Master Psychologie/SS 2022/Masterarbeit/Experiment/subject-14.csv",0,0,0,"l",25,25,"l","l",865.466699935496,865.466699935496,14,NA,376327.467200346,NA,330831.246700138,NA,377193.783000112,376019.696800038,100362.083500251,NA,NA,15140.7890003175,NA,NA,376026.717599947,375490.211400203,NA,373537.557400297,NA,330925.646299962,15956.6558999941,124343.598300125,153119.019300211,227090.33669997,244113.007400185,250766.162600368,330925.825800281,377193.852600176,NA,350457.755200099,369618.810200132,NA,NA,NA,375189.434400294,NA,NA,NA,NA,NA,NA,NA,330831.052600406,330918.430600315,NA,373537.485700101,NA,NA,375484.743500128,15141.9401001185,376327.562200371,15141.9679000974,376019.617300015,330830.249499995,NA,NA,15937.3225001618,NA,NA,264013.393600006,19,1488381.27060048,22,1,0,1,23,"Physik",5,3,3,3,3,3
86.9565217391304,96,64767.3588826159,"a","accuracy","an1999ma","1","b","a","1","0","0",14,1,700,"Wed Apr 19 12:05:45 2023",3,"sehr schwer","accuracy","Experiment.osexp","Bild_s1_b_5.png",1080,"ma",1999,"an","blaue","C:/Users/steff/Documents/Universität/Master Psychologie/SS 2022/Masterarbeit/Experiment/subject-14.csv",0,0,0,"l",30,30,"a","a",1267.9836996831,1267.9836996831,14,NA,378404.879500158,NA,330831.246700138,NA,379673.681000248,378096.790800337,100362.083500251,NA,NA,15140.7890003175,NA,NA,378103.996900376,377524.072899949,NA,377601.936900057,NA,330925.646299962,15956.6558999941,124343.598300125,153119.019300211,227090.33669997,244113.007400185,250766.162600368,330925.825800281,379673.751400318,NA,350457.755200099,369618.810200132,NA,NA,NA,377223.139700014,NA,NA,NA,NA,NA,NA,NA,330831.052600406,330918.430600315,NA,377601.861100178,NA,NA,377518.573900219,15141.9401001185,378405.063300394,15141.9679000974,378096.713300329,330830.249499995,NA,NA,15937.3225001618,NA,NA,264013.393600006,20,1489649.25430017,23,1,0,1,23,"Physik",5,3,3,3,3,3
83.3333333333333,96,62105.4327333501,"a","accuracy","an1999ma","0","b","a","0","0","0",15,1,700,"Wed Apr 19 12:05:45 2023",3,"sehr schwer","accuracy","Experiment.osexp","Bild_s1_b_20.png",1080,"ma",1999,"an","blaue","C:/Users/steff/Documents/Universität/Master Psychologie/SS 2022/Masterarbeit/Experiment/subject-14.csv",1,0,0,"l",20,20,"l","l",881.13130023703,881.13130023703,14,NA,380839.821200352,NA,330831.246700138,NA,381721.692300402,380531.619800255,100362.083500251,NA,NA,15140.7890003175,NA,NA,380538.795200177,379990.442099981,NA,377601.936900057,NA,330925.646299962,15956.6558999941,124343.598300125,153119.019300211,227090.33669997,244113.007400185,250766.162600368,330925.825800281,381721.764200367,NA,350457.755200099,369618.810200132,NA,NA,NA,379689.932400361,NA,NA,NA,NA,NA,NA,NA,330831.052600406,330918.430600315,NA,377601.861100178,NA,NA,379984.960600268,15141.9401001185,380839.922300074,15141.9679000974,380531.540000346,330830.249499995,NA,NA,15937.3225001618,NA,NA,264013.393600006,20,1490530.3856004,24,1,0,1,23,"Physik",5,3,3,3,3,3
50,96,5026.75734995864,"a","speed","an1999ma","0","b","a","0","0","0",16,2,700,"Wed Apr 19 12:05:45 2023",3,"sehr schwer","accuracy","Experiment.osexp","Bild_s1_b_17.png",1080,"ma",1999,"an","blaue","C:/Users/steff/Documents/Universität/Master Psychologie/SS 2022/Masterarbeit/Experiment/subject-14.csv",0,0,1,"l",10,-10,"l","l",802.927100099623,802.927100099623,14,NA,397366.027100012,NA,330831.246700138,387180.375800002,398169.605799951,397057.81180039,100362.083500251,NA,NA,15140.7890003175,NA,382184.978000354,397065.226500388,382040.353100281,NA,396554.758300073,NA,387302.291600034,15956.6558999941,124343.598300125,153119.019300211,227090.33669997,244113.007400185,250766.162600368,387302.423400339,398169.702600222,NA,396553.827800322,381739.996400196,NA,NA,NA,379689.932400361,NA,NA,NA,NA,NA,NA,NA,330831.052600406,387295.189199969,NA,396554.717500228,NA,NA,382034.991600085,15141.9401001185,397366.116499994,15141.9679000974,397057.610600255,330830.249499995,NA,NA,15937.3225001618,NA,NA,264013.393600006,1,10053.5146999173,2,1,20,1,23,"Physik",5,3,3,3,3,3
66.6666666666667,96,3535.57300008833,"a","speed","an1999ma","1","o","l","0","1","0",17,2,700,"Wed Apr 19 12:05:45 2023",3,"sehr schwer","accuracy","Experiment.osexp","Bild_s1_o_17.png",1080,"ma",1999,"an","blaue","C:/Users/steff/Documents/Universität/Master Psychologie/SS 2022/Masterarbeit/Experiment/subject-14.csv",0,0,0,"l",15,-5,"l","l",553.204300347716,553.204300347716,14,NA,399343.759899959,NA,330831.246700138,387180.375800002,399897.511400282,399035.419600084,100362.083500251,NA,NA,15140.7890003175,NA,382184.978000354,399042.563199997,398488.894900307,NA,396554.758300073,NA,387302.291600034,15956.6558999941,124343.598300125,153119.019300211,227090.33669997,244113.007400185,250766.162600368,387302.423400339,399897.585100029,NA,396553.827800322,381739.996400196,NA,398188.38640023,NA,379689.932400361,NA,NA,NA,NA,NA,NA,NA,330831.052600406,387295.189199969,NA,396554.717500228,NA,NA,398483.420799952,15141.9401001185,399343.845800031,15141.9679000974,399035.343400203,330830.249499995,NA,NA,15937.3225001618,NA,NA,264013.393600006,2,10606.719000265,3,1,20,1,23,"Physik",5,3,3,3,3,3
75,96,2756.52842503041,"a","speed","an1999ma","1","b","a","0","1","0",18,2,700,"Wed Apr 19 12:05:45 2023",2,"eher schwer","accuracy","Experiment.osexp","Bild_s2_b_7.png",1080,"ma",1999,"an","blaue","C:/Users/steff/Documents/Universität/Master Psychologie/SS 2022/Masterarbeit/Experiment/subject-14.csv",0,0,0,"l",20,0,"a","a",419.394699856639,419.394699856639,14,NA,401093.462700024,NA,330831.246700138,387180.375800002,401513.49080028,400785.716200247,100362.083500251,NA,NA,15140.7890003175,NA,382184.978000354,400792.817400303,400217.998300213,NA,400290.671800263,NA,387302.291600034,15956.6558999941,124343.598300125,153119.019300211,227090.33669997,244113.007400185,250766.162600368,387302.423400339,401513.562900014,NA,396553.827800322,381739.996400196,NA,398188.38640023,NA,379689.932400361,399917.410199996,NA,NA,NA,NA,NA,NA,330831.052600406,387295.189199969,NA,400290.598300286,NA,NA,400212.517500389,15141.9401001185,401093.631900381,15141.9679000974,400785.637800116,330830.249499995,NA,NA,15937.3225001618,NA,NA,264013.393600006,3,11026.1137001216,4,1,20,1,23,"Physik",5,3,3,3,3,3
80,96,2311.63316005841,"a","speed","an1999ma","1","o","l","0","1","0",19,2,700,"Wed Apr 19 12:05:45 2023",2,"eher schwer","accuracy","Experiment.osexp","Bild_s2_o_13.png",1080,"ma",1999,"an","blaue","C:/Users/steff/Documents/Universität/Master Psychologie/SS 2022/Masterarbeit/Experiment/subject-14.csv",0,0,0,"l",25,5,"l","l",532.052100170404,532.052100170404,14,NA,402676.813200116,NA,330831.246700138,387180.375800002,403209.508799948,402368.687500246,100362.083500251,NA,NA,15140.7890003175,NA,382184.978000354,402376.219000202,401828.711800277,NA,400290.671800263,NA,387302.291600034,15956.6558999941,124343.598300125,153119.019300211,227090.33669997,244113.007400185,250766.162600368,387302.423400339,403209.582800046,NA,396553.827800322,381739.996400196,NA,398188.38640023,NA,379689.932400361,401528.295500204,NA,NA,NA,NA,NA,NA,330831.052600406,387295.189199969,NA,400290.598300286,NA,NA,401823.232199997,15141.9401001185,402676.990000065,15141.9679000974,402368.609300349,330830.249499995,NA,NA,15937.3225001618,NA,NA,264013.393600006,4,11558.165800292,5,1,20,1,23,"Physik",5,3,3,3,3,3
66.6666666666667,96,2035.85253337709,"a","speed","an1999ma","0","b","a","0","0","0",20,2,700,"Wed Apr 19 12:05:45 2023",1,"eher leicht","accuracy","Experiment.osexp","Bild_s3_b_22.png",1080,"ma",1999,"an","blaue","C:/Users/steff/Documents/Universität/Master Psychologie/SS 2022/Masterarbeit/Experiment/subject-14.csv",0,1,0,"l",15,-5,"l","l",656.949399970472,656.949399970472,14,NA,404407.997700386,NA,330831.246700138,387180.375800002,405065.598899964,404099.778500386,100362.083500251,NA,NA,15140.7890003175,NA,382184.978000354,404107.044900302,403529.790400062,NA,403605.24540022,NA,387302.291600034,15956.6558999941,124343.598300125,153119.019300211,227090.33669997,244113.007400185,250766.162600368,387302.423400339,405065.692500211,NA,396553.827800322,381739.996400196,NA,398188.38640023,NA,379689.932400361,403229.106300045,NA,NA,NA,NA,NA,NA,330831.052600406,387295.189199969,NA,403605.173700023,NA,NA,403524.43260001,15141.9401001185,404408.08820026,15141.9679000974,404099.699100014,330830.249499995,NA,NA,15937.3225001618,NA,NA,264013.393600006,4,12215.1152002625,6,1,20,1,23,"Physik",5,3,3,3,3,3
71.4285714285714,96,1833.0923714675,"a","speed","an1999ma","1","o","l","0","1","0",21,2,700,"Wed Apr 19 12:05:45 2023",1,"eher leicht","accuracy","Experiment.osexp","Bild_s3_o_8.png",1080,"ma",1999,"an","blaue","C:/Users/steff/Documents/Universität/Master Psychologie/SS 2022/Masterarbeit/Experiment/subject-14.csv",0,0,0,"l",20,0,"l","l",616.53140000999,616.53140000999,14,NA,406240.384000354,NA,330831.246700138,387180.375800002,406857.741600368,405932.465299964,100362.083500251,NA,NA,15140.7890003175,NA,382184.978000354,405939.705100376,405396.543400362,NA,403605.24540022,NA,387302.291600034,15956.6558999941,124343.598300125,153119.019300211,227090.33669997,244113.007400185,250766.162600368,387302.423400339,406857.821600046,NA,396553.827800322,381739.996400196,NA,398188.38640023,405095.929200295,379689.932400361,403229.106300045,NA,NA,NA,NA,NA,NA,330831.052600406,387295.189199969,NA,403605.173700023,NA,NA,405391.105400398,15141.9401001185,406240.468000062,15141.9679000974,405932.386700064,330830.249499995,NA,NA,15937.3225001618,NA,NA,264013.393600006,5,12831.6466002725,7,1,20,1,23,"Physik",5,3,3,3,3,3
75,96,1673.16692502936,"a","speed","an1999ma","1","b","a","0","1","0",22,2,700,"Wed Apr 19 12:05:45 2023",0,"sehr leicht","accuracy","Experiment.osexp","Bild_s4_b_25.png",1080,"ma",1999,"an","blaue","C:/Users/steff/Documents/Universität/Master Psychologie/SS 2022/Masterarbeit/Experiment/subject-14.csv",0,0,0,"l",25,5,"a","a",553.688799962401,553.688799962401,14,NA,408063.282500021,NA,330831.246700138,387180.375800002,408617.659700103,407755.295700394,100362.083500251,NA,NA,15140.7890003175,NA,382184.978000354,407762.226399966,407181.643300224,NA,407254.647700116,NA,387302.291600034,15956.6558999941,124343.598300125,153119.019300211,227090.33669997,244113.007400185,250766.162600368,387302.423400339,408617.734200321,NA,396553.827800322,381739.996400196,NA,398188.38640023,405095.929200295,379689.932400361,406880.933600012,NA,NA,NA,NA,NA,NA,330831.052600406,387295.189199969,NA,407254.570099991,NA,NA,407176.327700261,15141.9401001185,408063.371600118,15141.9679000974,407755.215300247,330830.249499995,NA,NA,15937.3225001618,NA,NA,264013.393600006,6,13385.3354002349,8,1,20,1,23,"Physik",5,3,3,3,3,3
77.7777777777778,96,1544.65901116944,"a","speed","an1999ma","1","b","a","0","1","0",23,2,700,"Wed Apr 19 12:05:45 2023",0,"sehr leicht","accuracy","Experiment.osexp","Bild_s4_b_6.png",1080,"ma",1999,"an","blaue","C:/Users/steff/Documents/Universität/Master Psychologie/SS 2022/Masterarbeit/Experiment/subject-14.csv",0,0,0,"l",30,10,"a","a",516.595700290054,516.595700290054,14,NA,409780.346299987,NA,330831.246700138,387180.375800002,410297.845900059,409472.337200306,100362.083500251,NA,NA,15140.7890003175,NA,382184.978000354,409479.266700335,408933.492300101,NA,407254.647700116,NA,387302.291600034,15956.6558999941,124343.598300125,153119.019300211,227090.33669997,244113.007400185,250766.162600368,387302.423400339,410297.921200283,NA,396553.827800322,381739.996400196,NA,398188.38640023,405095.929200295,379689.932400361,408632.92790018,NA,NA,NA,NA,NA,NA,330831.052600406,387295.189199969,NA,407254.570099991,NA,NA,408928.141300101,15141.9401001185,409780.43620009,15141.9679000974,409472.258400172,330830.249499995,NA,NA,15937.3225001618,NA,NA,264013.393600006,7,13901.931100525,9,1,20,1,23,"Physik",5,3,3,3,3,3
80,96,1436.77048007958,"a","speed","an1999ma","1","o","l","0","1","0",24,2,700,"Wed Apr 19 12:05:45 2023",0,"sehr leicht","accuracy","Experiment.osexp","Bild_s4_o_19.png",1080,"ma",1999,"an","blaue","C:/Users/steff/Documents/Universität/Master Psychologie/SS 2022/Masterarbeit/Experiment/subject-14.csv",0,0,0,"l",35,15,"l","l",465.773700270802,465.773700270802,14,NA,411495.068500284,NA,330831.246700138,387180.375800002,411961.641600356,411186.453300063,100362.083500251,NA,NA,15140.7890003175,NA,382184.978000354,411193.771100137,410609.873699956,NA,410683.366800193,NA,387302.291600034,15956.6558999941,124343.598300125,153119.019300211,227090.33669997,244113.007400185,250766.162600368,387302.423400339,411961.714399979,NA,396553.827800322,381739.996400196,NA,398188.38640023,405095.929200295,379689.932400361,410308.967400342,NA,NA,NA,NA,NA,NA,330831.052600406,387295.189199969,NA,410683.2913002,NA,NA,410604.505300056,15141.9401001185,411495.252300054,15141.9679000974,411186.300500296,330830.249499995,NA,NA,15937.3225001618,NA,NA,264013.393600006,8,14367.7048007958,10,1,20,1,23,"Physik",5,3,3,3,3,3
72.7272727272727,96,1371.00668188015,"a","speed","an1999ma","0","b","a","0","0","0",25,2,700,"Wed Apr 19 12:05:45 2023",0,"sehr leicht","accuracy","Experiment.osexp","Bild_s4_b_8.png",1080,"ma",1999,"an","blaue","C:/Users/steff/Documents/Universität/Master Psychologie/SS 2022/Masterarbeit/Experiment/subject-14.csv",0,0,1,"l",25,5,"l","l",713.368699885905,713.368699885905,14,NA,413135.595400352,NA,330831.246700138,387180.375800002,413849.533100147,412827.914900146,100362.083500251,NA,NA,15140.7890003175,NA,382184.978000354,412835.008200258,412277.336900122,NA,410683.366800193,NA,387302.291600034,15956.6558999941,124343.598300125,153119.019300211,227090.33669997,244113.007400185,250766.162600368,387302.423400339,413849.631499965,NA,396553.827800322,381739.996400196,NA,398188.38640023,405095.929200295,379689.932400361,411976.824700367,NA,NA,NA,NA,NA,NA,330831.052600406,387295.189199969,NA,410683.2913002,NA,NA,412271.969300229,15141.9401001185,413135.680000298,15141.9679000974,412827.836400364,330830.249499995,NA,NA,15937.3225001618,NA,NA,264013.393600006,8,15081.0735006817,11,1,20,1,23,"Physik",5,3,3,3,3,3
66.6666666666667,96,1289.43632508162,"a","speed","an1999ma","0","o","l","0","0","0",26,2,700,"Wed Apr 19 12:05:45 2023",1,"eher leicht","accuracy","Experiment.osexp","Bild_s3_o_16.png",1080,"ma",1999,"an","blaue","C:/Users/steff/Documents/Universität/Master Psychologie/SS 2022/Masterarbeit/Experiment/subject-14.csv",0,1,0,"l",15,-5,"a","a",392.162400297821,392.162400297821,14,NA,415056.674400344,NA,330831.246700138,387180.375800002,415449.611400254,414748.326800298,100362.083500251,NA,NA,15140.7890003175,NA,382184.978000354,414755.573200062,414164.779900108,NA,414238.129300065,NA,387302.291600034,15956.6558999941,124343.598300125,153119.019300211,227090.33669997,244113.007400185,250766.162600368,387302.423400339,415449.711800087,NA,396553.827800322,381739.996400196,NA,413864.325700328,405095.929200295,379689.932400361,411976.824700367,NA,NA,NA,NA,NA,NA,330831.052600406,387295.189199969,NA,414238.056099974,NA,NA,414159.274999984,15141.9401001185,415056.853000075,15141.9679000974,414748.248000164,330830.249499995,NA,NA,15937.3225001618,NA,NA,264013.393600006,8,15473.2359009795,12,1,20,1,23,"Physik",5,3,3,3,3,3
61.5384615384615,96,1249.29617699952,"a","speed","an1999ma","0","o","l","0","0","0",27,2,700,"Wed Apr 19 12:05:45 2023",1,"eher leicht","accuracy","Experiment.osexp","Bild_s3_o_18.png",1080,"ma",1999,"an","blaue","C:/Users/steff/Documents/Universität/Master Psychologie/SS 2022/Masterarbeit/Experiment/subject-14.csv",0,0,1,"l",5,-15,"a","a",767.614400014281,767.614400014281,14,NA,416617.179000285,NA,330831.246700138,387180.375800002,417385.633400176,416309.493500274,100362.083500251,NA,NA,15140.7890003175,NA,382184.978000354,416316.205500159,415768.008500338,NA,414238.129300065,NA,387302.291600034,15956.6558999941,124343.598300125,153119.019300211,227090.33669997,244113.007400185,250766.162600368,387302.423400339,417385.727500077,NA,396553.827800322,381739.996400196,NA,413864.325700328,415467.410300393,379689.932400361,411976.824700367,NA,NA,NA,NA,NA,NA,330831.052600406,387295.189199969,NA,414238.056099974,NA,NA,415762.644100003,15141.9401001185,416617.400899995,15141.9679000974,416309.411900118,330830.249499995,NA,NA,15937.3225001618,NA,NA,264013.393600006,8,16240.8503009938,13,1,20,1,23,"Physik",5,3,3,3,3,3
64.2857142857143,96,1236.67650007909,"a","speed","an1999ma","1","o","l","0","0","1",28,2,700,"Wed Apr 19 12:05:45 2023",2,"eher schwer","accuracy","Experiment.osexp","Bild_s2_o_24.png",1080,"ma",1999,"an","blaue","C:/Users/steff/Documents/Universität/Master Psychologie/SS 2022/Masterarbeit/Experiment/subject-14.csv",0,0,0,"l",-5,-25,"l","l",1072.62070011348,1072.62070011348,14,NA,418584.304900374,NA,330831.246700138,387180.375800002,419657.565400004,418276.25240013,100362.083500251,NA,NA,15140.7890003175,NA,382184.978000354,418283.553400077,417700.722699985,NA,417778.033799957,NA,387302.291600034,15956.6558999941,124343.598300125,153119.019300211,227090.33669997,244113.007400185,250766.162600368,387302.423400339,419657.662500162,NA,396553.827800322,381739.996400196,NA,417400.346800219,415467.410300393,379689.932400361,411976.824700367,NA,NA,NA,NA,NA,NA,330831.052600406,387295.189199969,NA,417777.96029998,NA,NA,417695.349700283,15141.9401001185,418584.405600093,15141.9679000974,418276.170399971,330830.249499995,NA,NA,15937.3225001618,NA,NA,264013.393600006,9,17313.4710011072,14,1,20,1,23,"Physik",5,3,3,3,3,3
66.6666666666667,96,1216.03150004521,"a","speed","an1999ma","1","b","a","0","0","1",29,2,700,"Wed Apr 19 12:05:45 2023",2,"eher schwer","accuracy","Experiment.osexp","Bild_s2_b_20.png",1080,"ma",1999,"an","blaue","C:/Users/steff/Documents/Universität/Master Psychologie/SS 2022/Masterarbeit/Experiment/subject-14.csv",0,0,0,"l",-15,-35,"a","a",927.001499570906,927.001499570906,14,NA,420841.839000117,NA,330831.246700138,387180.375800002,421769.618900027,420533.365300391,100362.083500251,NA,NA,15140.7890003175,NA,382184.978000354,420540.747800376,419984.496199991,NA,417778.033799957,NA,387302.291600034,15956.6558999941,124343.598300125,153119.019300211,227090.33669997,244113.007400185,250766.162600368,387302.423400339,421769.713200163,NA,396553.827800322,381739.996400196,419683.76090005,417400.346800219,415467.410300393,379689.932400361,411976.824700367,NA,NA,NA,NA,NA,NA,330831.052600406,387295.189199969,NA,417777.96029998,NA,NA,419979.084200226,15141.9401001185,420842.026800383,15141.9679000974,420533.286200371,330830.249499995,NA,NA,15937.3225001618,NA,NA,264013.393600006,10,18240.4725006782,15,1,20,1,23,"Physik",5,3,3,3,3,3
68.75,96,1184.22850628849,"a","speed","an1999ma","1","o","l","0","0","1",30,2,700,"Wed Apr 19 12:05:45 2023",3,"sehr schwer","accuracy","Experiment.osexp","Bild_s1_o_12.png",1080,"ma",1999,"an","blaue","C:/Users/steff/Documents/Universität/Master Psychologie/SS 2022/Masterarbeit/Experiment/subject-14.csv",0,0,0,"l",-25,-45,"l","l",707.183599937707,707.183599937707,14,NA,422981.740900315,NA,330831.246700138,387180.375800002,423689.713099971,422673.750500195,100362.083500251,NA,NA,15140.7890003175,NA,382184.978000354,422680.63680036,422101.260600146,NA,422173.452500254,NA,387302.291600034,15956.6558999941,124343.598300125,153119.019300211,227090.33669997,244113.007400185,250766.162600368,387302.423400339,423689.812300261,NA,396553.827800322,381739.996400196,421799.736500252,417400.346800219,415467.410300393,379689.932400361,411976.824700367,NA,NA,NA,NA,NA,NA,330831.052600406,387295.189199969,NA,422173.379400279,NA,NA,422095.866600052,15141.9401001185,422981.830500066,15141.9679000974,422673.672600184,330830.249499995,NA,NA,15937.3225001618,NA,NA,264013.393600006,11,18947.6561006159,16,1,20,1,23,"Physik",5,3,3,3,3,3
64.7058823529412,96,1170.91484710245,"a","speed","an1999ma","0","b","a","0","0","0",31,2,700,"Wed Apr 19 12:05:45 2023",3,"sehr schwer","accuracy","Experiment.osexp","Bild_s1_b_16.png",1080,"ma",1999,"an","blaue","C:/Users/steff/Documents/Universität/Master Psychologie/SS 2022/Masterarbeit/Experiment/subject-14.csv",0,0,1,"l",-35,-55,"l","l",957.896300125867,957.896300125867,14,NA,424859.047200065,NA,330831.246700138,387180.375800002,425817.631999962,424550.139500294,100362.083500251,NA,NA,15140.7890003175,NA,382184.978000354,424557.129700202,424000.686800107,NA,422173.452500254,NA,387302.291600034,15956.6558999941,124343.598300125,153119.019300211,227090.33669997,244113.007400185,250766.162600368,387302.423400339,425817.727300339,NA,396553.827800322,381739.996400196,423700.214300305,417400.346800219,415467.410300393,379689.932400361,411976.824700367,NA,NA,NA,NA,NA,NA,330831.052600406,387295.189199969,NA,422173.379400279,NA,NA,423995.337800123,15141.9401001185,424859.133600257,15141.9679000974,424550.057100132,330830.249499995,NA,NA,15937.3225001618,NA,NA,264013.393600006,11,19905.5524007417,17,1,20,1,23,"Physik",5,3,3,3,3,3
100,96,6672.34504991211,"a","accuracy","an1999ma","1","o","l","1","0","0",32,3,700,"Wed Apr 19 12:05:45 2023",3,"sehr schwer","accuracy","Experiment.osexp","Bild_s1_o_4.png",1080,"ma",1999,"an","blaue","C:/Users/steff/Documents/Universität/Master Psychologie/SS 2022/Masterarbeit/Experiment/subject-14.csv",0,0,0,"l",-30,5,"l","l",1275.31389985234,1275.31389985234,14,NA,444317.599100061,NA,431358.637900092,431288.828900084,445593.502399977,444008.635000326,100362.083500251,NA,NA,15140.7890003175,NA,426293.753399979,444015.684500337,426145.84590029,NA,443514.673000202,NA,431443.50240007,15956.6558999941,124343.598300125,153119.019300211,227090.33669997,244113.007400185,250766.162600368,431443.620900158,445593.571100384,NA,443513.757999986,381739.996400196,423700.214300305,425845.12560023,415467.410300393,379689.932400361,411976.824700367,NA,NA,NA,NA,NA,NA,431358.561899979,431436.519500334,NA,443514.635100029,NA,NA,426140.371400397,15141.9401001185,444317.690400407,15141.9679000974,444008.438700344,330830.249499995,NA,431322.042600252,15937.3225001618,NA,NA,264013.393600006,2,13344.6900998242,2,1,-35,1,23,"Physik",5,3,3,3,3,3
66.6666666666667,96,4716.19569991405,"a","accuracy","an1999ma","0","b","a","0","0","0",33,3,700,"Wed Apr 19 12:05:45 2023",3,"sehr schwer","accuracy","Experiment.osexp","Bild_s1_b_16.png",1080,"ma",1999,"an","blaue","C:/Users/steff/Documents/Universität/Master Psychologie/SS 2022/Masterarbeit/Experiment/subject-14.csv",1,0,0,"l",-40,-5,"l","l",803.896999917924,803.896999917924,14,NA,446773.002800066,NA,431358.637900092,431288.828900084,447577.594400384,446465.38270032,100362.083500251,NA,NA,15140.7890003175,NA,426293.753399979,446472.46820014,445913.542600349,NA,443514.673000202,NA,431443.50240007,15956.6558999941,124343.598300125,153119.019300211,227090.33669997,244113.007400185,250766.162600368,431443.620900158,447577.665199991,NA,443513.757999986,381739.996400196,423700.214300305,425845.12560023,415467.410300393,445612.929200288,411976.824700367,NA,NA,NA,NA,NA,NA,431358.561899979,431436.519500334,NA,443514.635100029,NA,NA,445908.192300238,15141.9401001185,446773.094400298,15141.9679000974,446465.299900156,330830.249499995,NA,431322.042600252,15937.3225001618,NA,NA,264013.393600006,2,14148.5870997421,3,1,-35,1,23,"Physik",5,3,3,3,3,3
75,96,3766.97699993383,"a","accuracy","an1999ma","1","b","a","1","0","0",34,3,700,"Wed Apr 19 12:05:45 2023",2,"eher schwer","accuracy","Experiment.osexp","Bild_s2_b_18.png",1080,"ma",1999,"an","blaue","C:/Users/steff/Documents/Universität/Master Psychologie/SS 2022/Masterarbeit/Experiment/subject-14.csv",0,0,0,"l",-35,0,"a","a",919.320899993181,919.320899993181,14,NA,448785.541899968,NA,431358.637900092,431288.828900084,449705.582099967,448477.425400168,100362.083500251,NA,NA,15140.7890003175,NA,426293.753399979,448484.359499998,447904.082700144,NA,447983.604399953,NA,431443.50240007,15956.6558999941,124343.598300125,153119.019300211,227090.33669997,244113.007400185,250766.162600368,431443.620900158,449705.656100065,NA,443513.757999986,447603.656399995,423700.214300305,425845.12560023,415467.410300393,445612.929200288,411976.824700367,NA,NA,NA,NA,NA,NA,431358.561899979,431436.519500334,NA,447983.526899945,NA,NA,447898.675600067,15141.9401001185,448785.66930024,15141.9679000974,448477.346300147,330830.249499995,NA,431322.042600252,15937.3225001618,NA,NA,264013.393600006,3,15067.9079997353,4,1,-35,1,23,"Physik",5,3,3,3,3,3
80,96,3176.54255991802,"a","accuracy","an1999ma","1","b","a","1","0","0",35,3,700,"Wed Apr 19 12:05:45 2023",2,"eher schwer","accuracy","Experiment.osexp","Bild_s2_b_14.png",1080,"ma",1999,"an","blaue","C:/Users/steff/Documents/Universität/Master Psychologie/SS 2022/Masterarbeit/Experiment/subject-14.csv",0,0,0,"l",-30,5,"a","a",814.804799854755,814.804799854755,14,NA,450874.077400193,NA,431358.637900092,431288.828900084,451689.516700339,450566.072400194,100362.083500251,NA,NA,15140.7890003175,NA,426293.753399979,450572.968500201,450026.327200234,NA,447983.604399953,NA,431443.50240007,15956.6558999941,124343.598300125,153119.019300211,227090.33669997,244113.007400185,250766.162600368,431443.620900158,451689.586500172,NA,443513.757999986,447603.656399995,423700.214300305,425845.12560023,415467.410300393,449725.689799991,411976.824700367,NA,NA,NA,NA,NA,NA,431358.561899979,431436.519500334,NA,447983.526899945,NA,NA,450020.917600021,15141.9401001185,450874.170100316,15141.9679000974,450565.990800038,330830.249499995,NA,431322.042600252,15937.3225001618,NA,NA,264013.393600006,4,15882.7127995901,5,1,-35,1,23,"Physik",5,3,3,3,3,3
83.3333333333333,96,2776.47308322291,"a","accuracy","an1999ma","1","b","a","1","0","0",36,3,700,"Wed Apr 19 12:05:45 2023",1,"eher leicht","accuracy","Experiment.osexp","Bild_s3_b_16.png",1080,"ma",1999,"an","blaue","C:/Users/steff/Documents/Universität/Master Psychologie/SS 2022/Masterarbeit/Experiment/subject-14.csv",0,0,0,"l",-25,10,"a","a",776.125699747354,776.125699747354,14,NA,452896.671799943,NA,431358.637900092,431288.828900084,453673.453600146,452588.041600306,100362.083500251,NA,NA,15140.7890003175,NA,426293.753399979,452595.417600125,452019.322399981,NA,452092.040100135,NA,431443.50240007,15956.6558999941,124343.598300125,153119.019300211,227090.33669997,244113.007400185,250766.162600368,431443.620900158,453673.522800207,NA,443513.757999986,447603.656399995,423700.214300305,425845.12560023,415467.410300393,451719.007300213,411976.824700367,NA,NA,NA,NA,NA,NA,431358.561899979,431436.519500334,NA,452091.966900043,NA,NA,452013.966599945,15141.9401001185,452896.869300399,15141.9679000974,452587.962400168,330830.249499995,NA,431322.042600252,15937.3225001618,NA,NA,264013.393600006,5,16658.8384993374,6,1,-35,1,23,"Physik",5,3,3,3,3,3
85.7142857142857,96,2482.48841420614,"a","accuracy","an1999ma","1","b","a","1","0","0",37,3,700,"Wed Apr 19 12:05:45 2023",1,"eher leicht","accuracy","Experiment.osexp","Bild_s3_b_12.png",1080,"ma",1999,"an","blaue","C:/Users/steff/Documents/Universität/Master Psychologie/SS 2022/Masterarbeit/Experiment/subject-14.csv",0,0,0,"l",-20,15,"a","a",718.580400105566,718.580400105566,14,NA,454842.228000052,NA,431358.637900092,431288.828900084,455561.552300118,454534.288400318,100362.083500251,NA,NA,15140.7890003175,NA,426293.753399979,454541.610999964,453998.898399994,NA,452092.040100135,NA,431443.50240007,15956.6558999941,124343.598300125,153119.019300211,227090.33669997,244113.007400185,250766.162600368,431443.620900158,455561.622600071,NA,443513.757999986,447603.656399995,423700.214300305,425845.12560023,415467.410300393,453698.31570005,411976.824700367,NA,NA,NA,NA,NA,NA,431358.561899979,431436.519500334,NA,452091.966900043,NA,NA,453993.513100315,15141.9401001185,454842.423100024,15141.9679000974,454534.204400145,330830.249499995,NA,431322.042600252,15937.3225001618,NA,NA,264013.393600006,6,17377.418899443,7,1,-35,1,23,"Physik",5,3,3,3,3,3
87.5,96,2249.96573745739,"a","accuracy","an1999ma","1","o","l","1","0","0",38,3,700,"Wed Apr 19 12:05:45 2023",0,"sehr leicht","accuracy","Experiment.osexp","Bild_s4_o_12.png",1080,"ma",1999,"an","blaue","C:/Users/steff/Documents/Universität/Master Psychologie/SS 2022/Masterarbeit/Experiment/subject-14.csv",0,0,0,"l",-15,20,"l","l",622.307000216097,622.307000216097,14,NA,456778.498200234,NA,431358.637900092,431288.828900084,457401.496200357,456470.556900371,100362.083500251,NA,NA,15140.7890003175,NA,426293.753399979,456477.780099958,455891.516800039,NA,455971.623300109,NA,431443.50240007,15956.6558999941,124343.598300125,153119.019300211,227090.33669997,244113.007400185,250766.162600368,431443.620900158,457401.568599977,NA,443513.757999986,447603.656399995,423700.214300305,425845.12560023,415467.410300393,455590.925500263,411976.824700367,NA,NA,NA,NA,NA,NA,431358.561899979,431436.519500334,NA,455971.545600332,NA,NA,455886.169400066,15141.9401001185,456778.673300054,15141.9679000974,456470.47680011,330830.249499995,NA,431322.042600252,15937.3225001618,NA,NA,264013.393600006,7,17999.7258996591,8,1,-35,1,23,"Physik",5,3,3,3,3,3
88.8888888888889,96,2054.09953329298,"a","accuracy","an1999ma","1","o","l","1","0","0",39,3,700,"Wed Apr 19 12:05:45 2023",0,"sehr leicht","accuracy","Experiment.osexp","Bild_s4_o_1.png",1080,"ma",1999,"an","blaue","C:/Users/steff/Documents/Universität/Master Psychologie/SS 2022/Masterarbeit/Experiment/subject-14.csv",0,0,0,"l",-10,25,"l","l",487.169899977744,487.169899977744,14,NA,458561.636000406,NA,431358.637900092,431288.828900084,459049.593999982,458253.771699965,100362.083500251,NA,NA,15140.7890003175,NA,426293.753399979,458260.888700373,457719.403900206,NA,455971.623300109,NA,431443.50240007,15956.6558999941,124343.598300125,153119.019300211,227090.33669997,244113.007400185,250766.162600368,431443.620900158,459049.66330016,NA,443513.757999986,447603.656399995,423700.214300305,425845.12560023,415467.410300393,457418.985200115,411976.824700367,NA,NA,NA,NA,NA,NA,431358.561899979,431436.519500334,NA,455971.545600332,NA,NA,457713.989099953,15141.9401001185,458561.828800011,15141.9679000974,458253.690000158,330830.249499995,NA,431322.042600252,15937.3225001618,NA,NA,264013.393600006,8,18486.8957996368,9,1,-35,1,23,"Physik",5,3,3,3,3,3
90,96,1924.284659978,"a","accuracy","an1999ma","1","b","a","1","0","0",40,3,700,"Wed Apr 19 12:05:45 2023",0,"sehr leicht","accuracy","Experiment.osexp","Bild_s4_b_17.png",1080,"ma",1999,"an","blaue","C:/Users/steff/Documents/Universität/Master Psychologie/SS 2022/Masterarbeit/Experiment/subject-14.csv",0,0,0,"l",-5,30,"a","a",755.950800143182,755.950800143182,14,NA,460260.940799955,NA,431358.637900092,431288.828900084,461017.691700254,459952.841700055,100362.083500251,NA,NA,15140.7890003175,NA,426293.753399979,459960.147200152,459371.854400262,NA,459446.245200001,NA,431443.50240007,15956.6558999941,124343.598300125,153119.019300211,227090.33669997,244113.007400185,250766.162600368,431443.620900158,461017.76190009,NA,443513.757999986,447603.656399995,423700.214300305,425845.12560023,415467.410300393,459071.233800147,411976.824700367,NA,NA,NA,NA,NA,NA,431358.561899979,431436.519500334,NA,459446.168400347,NA,NA,459366.517000366,15141.9401001185,460261.032400187,15141.9679000974,459952.761300374,330830.249499995,NA,431322.042600252,15937.3225001618,NA,NA,264013.393600006,9,19242.84659978,10,1,-35,1,23,"Physik",5,3,3,3,3,3
90.9090909090909,96,1827.02944542027,"a","accuracy","an1999ma","1","b","a","1","0","0",41,3,700,"Wed Apr 19 12:05:45 2023",0,"sehr leicht","accuracy","Experiment.osexp","Bild_s4_b_3.png",1080,"ma",1999,"an","blaue","C:/Users/steff/Documents/Universität/Master Psychologie/SS 2022/Masterarbeit/Experiment/subject-14.csv",0,0,0,"l",0,35,"a","a",854.477299842983,854.477299842983,14,NA,462194.2729,NA,431358.637900092,431288.828900084,463049.538100138,461884.460899979,100362.083500251,NA,NA,15140.7890003175,NA,426293.753399979,461891.783200204,461342.867200263,NA,459446.245200001,NA,431443.50240007,15956.6558999941,124343.598300125,153119.019300211,227090.33669997,244113.007400185,250766.162600368,431443.620900158,463049.608299974,NA,443513.757999986,447603.656399995,423700.214300305,425845.12560023,415467.410300393,461042.005400173,411976.824700367,NA,NA,NA,NA,NA,NA,431358.561899979,431436.519500334,NA,459446.168400347,NA,NA,461337.472600397,15141.9401001185,462194.506100379,15141.9679000974,461884.382999968,330830.249499995,NA,431322.042600252,15937.3225001618,NA,NA,264013.393600006,10,20097.323899623,11,1,-35,1,23,"Physik",5,3,3,3,3,3
91.6666666666667,96,1733.98899997119,"a","accuracy","an1999ma","1","b","a","1","0","0",42,3,700,"Wed Apr 19 12:05:45 2023",1,"eher leicht","accuracy","Experiment.osexp","Bild_s3_b_8.png",1080,"ma",1999,"an","blaue","C:/Users/steff/Documents/Universität/Master Psychologie/SS 2022/Masterarbeit/Experiment/subject-14.csv",0,0,0,"l",5,40,"a","a",710.544100031257,710.544100031257,14,NA,464258.348500356,NA,431358.637900092,431288.828900084,464969.536800403,463950.276700314,100362.083500251,NA,NA,15140.7890003175,NA,426293.753399979,463957.572100218,463372.236700263,NA,463451.344400179,NA,431443.50240007,15956.6558999941,124343.598300125,153119.019300211,227090.33669997,244113.007400185,250766.162600368,431443.620900158,464969.609400257,NA,443513.757999986,447603.656399995,423700.214300305,425845.12560023,415467.410300393,463071.572900284,411976.824700367,NA,NA,NA,NA,NA,NA,431358.561899979,431436.519500334,NA,463451.270000078,NA,NA,463366.879300214,15141.9401001185,464258.438300341,15141.9679000974,463950.195600279,330830.249499995,NA,431322.042600252,15937.3225001618,NA,NA,264013.393600006,11,20807.8679996543,12,1,-35,1,23,"Physik",5,3,3,3,3,3
92.3076923076923,96,1663.93219228261,"a","accuracy","an1999ma","1","b","a","1","0","0",43,3,700,"Wed Apr 19 12:05:45 2023",1,"eher leicht","accuracy","Experiment.osexp","Bild_s3_b_23.png",1080,"ma",1999,"an","blaue","C:/Users/steff/Documents/Universität/Master Psychologie/SS 2022/Masterarbeit/Experiment/subject-14.csv",0,0,0,"l",10,45,"a","a",823.25050001964,823.25050001964,14,NA,466129.557100125,NA,431358.637900092,431288.828900084,466953.472100198,465821.107900236,100362.083500251,NA,NA,15140.7890003175,NA,426293.753399979,465828.359500039,465282.052800059,NA,463451.344400179,NA,431443.50240007,15956.6558999941,124343.598300125,153119.019300211,227090.33669997,244113.007400185,250766.162600368,431443.620900158,466953.540400136,NA,443513.757999986,447603.656399995,423700.214300305,425845.12560023,415467.410300393,464981.491800398,411976.824700367,NA,NA,NA,NA,NA,NA,431358.561899979,431436.519500334,NA,463451.270000078,NA,NA,465276.689300314,15141.9401001185,466129.717899952,15141.9679000974,465821.029100101,330830.249499995,NA,431322.042600252,15937.3225001618,NA,NA,264013.393600006,12,21631.1184996739,13,1,-35,1,23,"Physik",5,3,3,3,3,3
92.8571428571429,96,1583.95357140606,"a","accuracy","an1999ma","1","o","l","1","0","0",44,3,700,"Wed Apr 19 12:05:45 2023",2,"eher schwer","accuracy","Experiment.osexp","Bild_s2_o_8.png",1080,"ma",1999,"an","blaue","C:/Users/steff/Documents/Universität/Master Psychologie/SS 2022/Masterarbeit/Experiment/subject-14.csv",0,0,0,"l",15,50,"l","l",544.231500010937,544.231500010937,14,NA,468152.570500039,NA,431358.637900092,431288.828900084,468697.54740037,467844.449200202,100362.083500251,NA,NA,15140.7890003175,NA,426293.753399979,467851.81070026,467269.912600052,NA,467345.313700382,NA,431443.50240007,15956.6558999941,124343.598300125,153119.019300211,227090.33669997,244113.007400185,250766.162600368,431443.620900158,468697.617100086,NA,443513.757999986,447603.656399995,423700.214300305,425845.12560023,415467.410300393,466969.510100316,411976.824700367,NA,NA,NA,NA,NA,NA,431358.561899979,431436.519500334,NA,467345.211700071,NA,NA,467264.507000335,15141.9401001185,468152.741600294,15141.9679000974,467844.370900188,330830.249499995,NA,431322.042600252,15937.3225001618,NA,NA,264013.393600006,13,22175.3499996848,14,1,-35,1,23,"Physik",5,3,3,3,3,3
86.6666666666667,96,1533.80867329737,"a","accuracy","an1999ma","0","b","a","0","0","0",45,3,700,"Wed Apr 19 12:05:45 2023",2,"eher schwer","accuracy","Experiment.osexp","Bild_s2_b_1.png",1080,"ma",1999,"an","blaue","C:/Users/steff/Documents/Universität/Master Psychologie/SS 2022/Masterarbeit/Experiment/subject-14.csv",1,0,0,"l",5,40,"l","l",831.780099775642,831.780099775642,14,NA,469865.042299964,NA,431358.637900092,431288.828900084,470697.592700366,469557.3477,100362.083500251,NA,NA,15140.7890003175,NA,426293.753399979,469564.400100149,469018.78060028,NA,467345.313700382,NA,431443.50240007,15956.6558999941,124343.598300125,153119.019300211,227090.33669997,244113.007400185,250766.162600368,431443.620900158,470697.662800085,NA,443513.757999986,447603.656399995,423700.214300305,425845.12560023,415467.410300393,468718.141500372,411976.824700367,NA,NA,NA,NA,NA,NA,431358.561899979,431436.519500334,NA,467345.211700071,NA,NA,469013.383200392,15141.9401001185,469865.212300327,15141.9679000974,469557.262800168,330830.249499995,NA,431322.042600252,15937.3225001618,NA,NA,264013.393600006,13,23007.1300994605,15,1,-35,1,23,"Physik",5,3,3,3,3,3
81.25,96,1480.85390622145,"a","accuracy","an1999ma","0","o","l","0","0","0",46,3,700,"Wed Apr 19 12:05:45 2023",3,"sehr schwer","accuracy","Experiment.osexp","Bild_s1_o_11.png",1080,"ma",1999,"an","blaue","C:/Users/steff/Documents/Universität/Master Psychologie/SS 2022/Masterarbeit/Experiment/subject-14.csv",1,0,0,"l",-5,30,"a","a",686.532400082797,686.532400082797,14,NA,471898.254500236,NA,431358.637900092,431288.828900084,472585.621800274,471590.439200401,100362.083500251,NA,NA,15140.7890003175,NA,426293.753399979,471597.6269003,471012.103999965,NA,471082.915200386,NA,431443.50240007,15956.6558999941,124343.598300125,153119.019300211,227090.33669997,244113.007400185,250766.162600368,431443.620900158,472585.693300236,NA,443513.757999986,470711.386200041,423700.214300305,425845.12560023,415467.410300393,468718.141500372,411976.824700367,NA,NA,NA,NA,NA,NA,431358.561899979,431436.519500334,NA,471082.842499949,NA,NA,471006.691600196,15141.9401001185,471898.448999971,15141.9679000974,471590.360900387,330830.249499995,NA,431322.042600252,15937.3225001618,NA,NA,264013.393600006,13,23693.6624995433,16,1,-35,1,23,"Physik",5,3,3,3,3,3
82.3529411764706,96,1460.44686466784,"a","accuracy","an1999ma","1","b","a","1","0","0",47,3,700,"Wed Apr 19 12:05:45 2023",3,"sehr schwer","accuracy","Experiment.osexp","Bild_s1_b_9.png",1080,"ma",1999,"an","blaue","C:/Users/steff/Documents/Universität/Master Psychologie/SS 2022/Masterarbeit/Experiment/subject-14.csv",0,0,0,"l",0,35,"a","a",1133.93419981003,1133.93419981003,14,NA,473754.872700199,NA,431358.637900092,431288.828900084,474889.564299956,473446.834499948,100362.083500251,NA,NA,15140.7890003175,NA,426293.753399979,473453.897100408,472908.956100233,NA,471082.915200386,NA,431443.50240007,15956.6558999941,124343.598300125,153119.019300211,227090.33669997,244113.007400185,250766.162600368,431443.620900158,474889.633600134,NA,443513.757999986,472607.831200119,423700.214300305,425845.12560023,415467.410300393,468718.141500372,411976.824700367,NA,NA,NA,NA,NA,NA,431358.561899979,431436.519500334,NA,471082.842499949,NA,NA,472903.547200374,15141.9401001185,473755.036000162,15141.9679000974,473446.754800156,330830.249499995,NA,431322.042600252,15937.3225001618,NA,NA,264013.393600006,14,24827.5966993533,17,1,-35,1,23,"Physik",5,3,3,3,3,3
100,96,10106.5796499606,"a","speed","an1999ma","1","o","l","0","1","0",48,4,700,"Wed Apr 19 12:05:45 2023",3,"sehr schwer","accuracy","Experiment.osexp","Bild_s1_o_3.png",1080,"ma",1999,"an","blaue","C:/Users/steff/Documents/Universität/Master Psychologie/SS 2022/Masterarbeit/Experiment/subject-14.csv",0,0,0,"l",5,5,"l","l",570.290300063789,570.290300063789,14,NA,500958.574300166,NA,431358.637900092,480355.766300112,501529.783900362,500650.636699982,100362.083500251,NA,NA,15140.7890003175,NA,475360.620600171,500657.54480008,475219.069200102,NA,500122.770400252,NA,480477.978100069,15956.6558999941,124343.598300125,153119.019300211,227090.33669997,244113.007400185,250766.162600368,480478.124200366,501529.86020036,NA,500121.778400149,472607.831200119,423700.214300305,425845.12560023,415467.410300393,474918.321799953,411976.824700367,NA,NA,NA,NA,NA,NA,431358.561899979,480470.912400167,NA,500122.726700269,NA,NA,475213.71260006,15141.9401001185,500958.672100212,15141.9679000974,500650.43340018,330830.249499995,NA,431322.042600252,15937.3225001618,NA,NA,264013.393600006,2,20213.1592999212,2,1,0,1,23,"Physik",5,3,3,3,3,3
100,96,6888.59126654764,"a","speed","an1999ma","1","o","l","0","1","0",49,4,700,"Wed Apr 19 12:05:45 2023",3,"sehr schwer","accuracy","Experiment.osexp","Bild_s1_o_21.png",1080,"ma",1999,"an","blaue","C:/Users/steff/Documents/Universität/Master Psychologie/SS 2022/Masterarbeit/Experiment/subject-14.csv",0,0,0,"l",10,10,"l","l",452.614499721676,452.614499721676,14,NA,502692.257500254,NA,431358.637900092,480355.766300112,503145.56240011,502384.152099956,100362.083500251,NA,NA,15140.7890003175,NA,475360.620600171,502391.127500217,501846.306800377,NA,500122.770400252,NA,480477.978100069,15956.6558999941,124343.598300125,153119.019300211,227090.33669997,244113.007400185,250766.162600368,480478.124200366,503145.637200214,NA,500121.778400149,472607.831200119,423700.214300305,425845.12560023,415467.410300393,474918.321799953,501545.547300018,NA,NA,NA,NA,NA,NA,431358.561899979,480470.912400167,NA,500122.726700269,NA,NA,501840.942200273,15141.9401001185,502692.345800344,15141.9679000974,502384.069000371,330830.249499995,NA,431322.042600252,15937.3225001618,NA,NA,264013.393600006,3,20665.7737996429,3,1,0,1,23,"Physik",5,3,3,3,3,3
100,96,5343.12147484161,"a","speed","an1999ma","1","b","a","0","0","1",50,4,700,"Wed Apr 19 12:05:45 2023",2,"eher schwer","accuracy","Experiment.osexp","Bild_s2_b_7.png",1080,"ma",1999,"an","blaue","C:/Users/steff/Documents/Universität/Master Psychologie/SS 2022/Masterarbeit/Experiment/subject-14.csv",0,0,0,"l",0,0,"a","a",706.712099723518,706.712099723518,14,NA,504342.144499999,NA,431358.637900092,480355.766300112,505049.573800061,504033.718000166,100362.083500251,NA,NA,15140.7890003175,NA,475360.620600171,504040.648300201,503461.099300068,NA,503537.630300038,NA,480477.978100069,15956.6558999941,124343.598300125,153119.019300211,227090.33669997,244113.007400185,250766.162600368,480478.124200366,505049.670500215,NA,500121.778400149,472607.831200119,423700.214300305,425845.12560023,415467.410300393,474918.321799953,503160.534600262,NA,NA,NA,NA,NA,NA,431358.561899979,480470.912400167,NA,503537.552000023,NA,NA,503455.735600088,15141.9401001185,504342.231000308,15141.9679000974,504033.633800223,330830.249499995,NA,431322.042600252,15937.3225001618,NA,NA,264013.393600006,4,21372.4858993664,4,1,0,1,23,"Physik",5,3,3,3,3,3
100,96,4345.5510398373,"a","speed","an1999ma","1","b","a","0","1","0",51,4,700,"Wed Apr 19 12:05:45 2023",2,"eher schwer","accuracy","Experiment.osexp","Bild_s2_b_13.png",1080,"ma",1999,"an","blaue","C:/Users/steff/Documents/Universität/Master Psychologie/SS 2022/Masterarbeit/Experiment/subject-14.csv",0,0,0,"l",5,5,"a","a",355.269299820065,355.269299820065,14,NA,506213.566500228,NA,431358.637900092,480355.766300112,506569.547300227,505904.87760026,100362.083500251,NA,NA,15140.7890003175,NA,475360.620600171,505912.183600012,505368.595600128,NA,503537.630300038,NA,480477.978100069,15956.6558999941,124343.598300125,153119.019300211,227090.33669997,244113.007400185,250766.162600368,480478.124200366,506569.623200223,NA,500121.778400149,472607.831200119,505068.027300294,425845.12560023,415467.410300393,474918.321799953,503160.534600262,NA,NA,NA,NA,NA,NA,431358.561899979,480470.912400167,NA,503537.552000023,NA,NA,505363.245200366,15141.9401001185,506213.681400288,15141.9679000974,505904.797900003,330830.249499995,NA,431322.042600252,15937.3225001618,NA,NA,264013.393600006,5,21727.7551991865,5,1,0,1,23,"Physik",5,3,3,3,3,3
83.3333333333333,96,3702.79478320541,"a","speed","an1999ma","0","b","a","0","0","0",52,4,700,"Wed Apr 19 12:05:45 2023",1,"eher leicht","accuracy","Experiment.osexp","Bild_s3_b_23.png",1080,"ma",1999,"an","blaue","C:/Users/steff/Documents/Universität/Master Psychologie/SS 2022/Masterarbeit/Experiment/subject-14.csv",0,1,0,"l",-5,-5,"l","l",489.013500045985,489.013500045985,14,NA,507759.750999976,NA,431358.637900092,480355.766300112,508249.562700279,507451.762800105,100362.083500251,NA,NA,15140.7890003175,NA,475360.620600171,507459.061800037,506880.668200087,NA,506957.332500257,NA,480477.978100069,15956.6558999941,124343.598300125,153119.019300211,227090.33669997,244113.007400185,250766.162600368,480478.124200366,508249.65800019,NA,500121.778400149,472607.831200119,505068.027300294,425845.12560023,415467.410300393,474918.321799953,506580.209500156,NA,NA,NA,NA,NA,NA,431358.561899979,480470.912400167,NA,506957.256100141,NA,NA,506875.249700155,15141.9401001185,507759.935399983,15141.9679000974,507451.684200205,330830.249499995,NA,431322.042600252,15937.3225001618,NA,NA,264013.393600006,5,22216.7686992325,6,1,0,1,23,"Physik",5,3,3,3,3,3
85.7142857142857,96,3234.81598556308,"a","speed","an1999ma","1","o","l","0","1","0",53,4,700,"Wed Apr 19 12:05:45 2023",1,"eher leicht","accuracy","Experiment.osexp","Bild_s3_o_11.png",1080,"ma",1999,"an","blaue","C:/Users/steff/Documents/Universität/Master Psychologie/SS 2022/Masterarbeit/Experiment/subject-14.csv",0,0,0,"l",0,0,"l","l",426.943199709058,426.943199709058,14,NA,509405.90630006,NA,431358.637900092,480355.766300112,509833.656100091,509097.959700041,100362.083500251,NA,NA,15140.7890003175,NA,475360.620600171,509105.237900279,508564.9550003,NA,506957.332500257,NA,480477.978100069,15956.6558999941,124343.598300125,153119.019300211,227090.33669997,244113.007400185,250766.162600368,480478.124200366,509833.736300003,NA,500121.778400149,472607.831200119,505068.027300294,425845.12560023,508264.12950037,474918.321799953,506580.209500156,NA,NA,NA,NA,NA,NA,431358.561899979,480470.912400167,NA,506957.256100141,NA,NA,508559.719300363,15141.9401001185,509405.986800324,15141.9679000974,509097.875700332,330830.249499995,NA,431322.042600252,15937.3225001618,NA,NA,264013.393600006,6,22643.7118989415,7,1,0,1,23,"Physik",5,3,3,3,3,3
87.5,96,2891.11336239148,"a","speed","an1999ma","1","b","a","0","1","0",54,4,700,"Wed Apr 19 12:05:45 2023",0,"sehr leicht","accuracy","Experiment.osexp","Bild_s4_b_20.png",1080,"ma",1999,"an","blaue","C:/Users/steff/Documents/Universität/Master Psychologie/SS 2022/Masterarbeit/Experiment/subject-14.csv",0,0,0,"l",5,5,"a","a",485.195000190288,485.195000190288,14,NA,511027.565299999,NA,431358.637900092,480355.766300112,511513.576600235,510719.604200218,100362.083500251,NA,NA,15140.7890003175,NA,475360.620600171,510726.948800031,510149.845900014,NA,510224.273800384,NA,480477.978100069,15956.6558999941,124343.598300125,153119.019300211,227090.33669997,244113.007400185,250766.162600368,480478.124200366,511513.651700225,NA,500121.778400149,472607.831200119,505068.027300294,425845.12560023,508264.12950037,474918.321799953,509848.905200139,NA,NA,NA,NA,NA,NA,431358.561899979,480470.912400167,NA,510224.200600293,NA,NA,510144.388100132,15141.9401001185,511027.73670014,15141.9679000974,510719.525200315,330830.249499995,NA,431322.042600252,15937.3225001618,NA,NA,264013.393600006,7,23128.9068991318,8,1,0,1,23,"Physik",5,3,3,3,3,3
88.8888888888889,96,2619.39601098291,"a","speed","an1999ma","1","o","l","0","1","0",55,4,700,"Wed Apr 19 12:05:45 2023",0,"sehr leicht","accuracy","Experiment.osexp","Bild_s4_o_4.png",1080,"ma",1999,"an","blaue","C:/Users/steff/Documents/Universität/Master Psychologie/SS 2022/Masterarbeit/Experiment/subject-14.csv",0,0,0,"l",10,10,"l","l",445.657199714333,445.657199714333,14,NA,512683.115000371,NA,431358.637900092,480355.766300112,513129.506800324,512375.133600086,100362.083500251,NA,NA,15140.7890003175,NA,475360.620600171,512382.394100074,511840.212900192,NA,510224.273800384,NA,480477.978100069,15956.6558999941,124343.598300125,153119.019300211,227090.33669997,244113.007400185,250766.162600368,480478.124200366,513129.581100307,NA,500121.778400149,472607.831200119,505068.027300294,425845.12560023,508264.12950037,474918.321799953,511539.702100214,NA,NA,NA,NA,NA,NA,431358.561899979,480470.912400167,NA,510224.200600293,NA,NA,511834.857800044,15141.9401001185,512683.278700337,15141.9679000974,512375.055900309,330830.249499995,NA,431322.042600252,15937.3225001618,NA,NA,264013.393600006,8,23574.5640988462,9,1,0,1,23,"Physik",5,3,3,3,3,3
90,96,2414.76048985496,"a","speed","an1999ma","1","b","a","0","1","0",56,4,700,"Wed Apr 19 12:05:45 2023",0,"sehr leicht","accuracy","Experiment.osexp","Bild_s4_b_21.png",1080,"ma",1999,"an","blaue","C:/Users/steff/Documents/Universität/Master Psychologie/SS 2022/Masterarbeit/Experiment/subject-14.csv",0,0,0,"l",15,15,"a","a",573.040799703449,573.040799703449,14,NA,514331.697500311,NA,431358.637900092,480355.766300112,514905.52100027,514023.006699979,100362.083500251,NA,NA,15140.7890003175,NA,475360.620600171,514030.156700406,513459.57430033,NA,513530.863299966,NA,480477.978100069,15956.6558999941,124343.598300125,153119.019300211,227090.33669997,244113.007400185,250766.162600368,480478.124200366,514905.601600185,NA,500121.778400149,472607.831200119,505068.027300294,425845.12560023,508264.12950037,474918.321799953,513159.00720004,NA,NA,NA,NA,NA,NA,431358.561899979,480470.912400167,NA,513530.790400226,NA,NA,513454.159799963,15141.9401001185,514331.868000329,15141.9679000974,514022.927500308,330830.249499995,NA,431322.042600252,15937.3225001618,NA,NA,264013.393600006,9,24147.6048985496,10,1,0,1,23,"Physik",5,3,3,3,3,3
90.9090909090909,96,2266.77221809091,"a","speed","an1999ma","1","b","a","0","0","1",57,4,700,"Wed Apr 19 12:05:45 2023",0,"sehr leicht","accuracy","Experiment.osexp","Bild_s4_b_18.png",1080,"ma",1999,"an","blaue","C:/Users/steff/Documents/Universität/Master Psychologie/SS 2022/Masterarbeit/Experiment/subject-14.csv",0,0,0,"l",5,5,"a","a",786.889500450343,786.889500450343,14,NA,516069.961200003,NA,431358.637900092,480355.766300112,516857.579000294,515761.856500059,100362.083500251,NA,NA,15140.7890003175,NA,475360.620600171,515769.212200306,515217.521700077,NA,513530.863299966,NA,480477.978100069,15956.6558999941,124343.598300125,153119.019300211,227090.33669997,244113.007400185,250766.162600368,480478.124200366,516857.692200225,NA,500121.778400149,472607.831200119,505068.027300294,425845.12560023,508264.12950037,474918.321799953,514916.902900208,NA,NA,NA,NA,NA,NA,431358.561899979,480470.912400167,NA,513530.790400226,NA,NA,515212.134200148,15141.9401001185,516070.045399945,15141.9679000974,515761.777800042,330830.249499995,NA,431322.042600252,15937.3225001618,NA,NA,264013.393600006,10,24934.494399,11,1,0,1,23,"Physik",5,3,3,3,3,3
91.6666666666667,96,2122.02233324448,"a","speed","an1999ma","1","o","l","0","1","0",58,4,700,"Wed Apr 19 12:05:45 2023",1,"eher leicht","accuracy","Experiment.osexp","Bild_s3_o_24.png",1080,"ma",1999,"an","blaue","C:/Users/steff/Documents/Universität/Master Psychologie/SS 2022/Masterarbeit/Experiment/subject-14.csv",0,0,0,"l",10,10,"l","l",529.773599933833,529.773599933833,14,NA,518055.082600098,NA,431358.637900092,480355.766300112,518585.513500031,517746.862800326,100362.083500251,NA,NA,15140.7890003175,NA,475360.620600171,517753.764000256,517172.086300328,NA,517242.558600381,NA,480477.978100069,15956.6558999941,124343.598300125,153119.019300211,227090.33669997,244113.007400185,250766.162600368,480478.124200366,518585.588300135,NA,500121.778400149,472607.831200119,516871.519900393,425845.12560023,508264.12950037,474918.321799953,514916.902900208,NA,NA,NA,NA,NA,NA,431358.561899979,480470.912400167,NA,517242.48370016,NA,NA,517166.716100182,15141.9401001185,518055.170000065,15141.9679000974,517746.783200186,330830.249499995,NA,431322.042600252,15937.3225001618,NA,NA,264013.393600006,11,25464.2679989338,12,1,0,1,23,"Physik",5,3,3,3,3,3
92.3076923076923,96,1991.4970768329,"a","speed","an1999ma","1","o","l","0","1","0",59,4,700,"Wed Apr 19 12:05:45 2023",1,"eher leicht","accuracy","Experiment.osexp","Bild_s3_o_12.png",1080,"ma",1999,"an","blaue","C:/Users/steff/Documents/Universität/Master Psychologie/SS 2022/Masterarbeit/Experiment/subject-14.csv",0,0,0,"l",15,15,"l","l",425.193999893963,425.193999893963,14,NA,519759.63230012,NA,431358.637900092,480355.766300112,520185.607900377,519451.645400375,100362.083500251,NA,NA,15140.7890003175,NA,475360.620600171,519458.614800125,518912.926800083,NA,517242.558600381,NA,480477.978100069,15956.6558999941,124343.598300125,153119.019300211,227090.33669997,244113.007400185,250766.162600368,480478.124200366,520185.686200392,NA,500121.778400149,472607.831200119,516871.519900393,425845.12560023,508264.12950037,474918.321799953,518612.352500204,NA,NA,NA,NA,NA,NA,431358.561899979,480470.912400167,NA,517242.48370016,NA,NA,518907.571500167,15141.9401001185,519759.717900306,15141.9679000974,519451.563400216,330830.249499995,NA,431322.042600252,15937.3225001618,NA,NA,264013.393600006,12,25889.4619988278,13,1,0,1,23,"Physik",5,3,3,3,3,3
92.8571428571429,96,1878.28144989908,"a","speed","an1999ma","1","o","l","0","1","0",60,4,700,"Wed Apr 19 12:05:45 2023",2,"eher schwer","accuracy","Experiment.osexp","Bild_s2_o_25.png",1080,"ma",1999,"an","blaue","C:/Users/steff/Documents/Universität/Master Psychologie/SS 2022/Masterarbeit/Experiment/subject-14.csv",0,0,0,"l",20,20,"l","l",406.478299759328,406.478299759328,14,NA,521378.354700282,NA,431358.637900092,480355.766300112,521785.791400354,521069.897599984,100362.083500251,NA,NA,15140.7890003175,NA,475360.620600171,521077.385500073,520496.895000339,NA,520569.602600299,NA,480477.978100069,15956.6558999941,124343.598300125,153119.019300211,227090.33669997,244113.007400185,250766.162600368,480478.124200366,521785.866599996,NA,500121.778400149,472607.831200119,516871.519900393,425845.12560023,508264.12950037,474918.321799953,520196.395500097,NA,NA,NA,NA,NA,NA,431358.561899979,480470.912400167,NA,520569.529500324,NA,NA,520491.513200104,15141.9401001185,521378.442100249,15141.9679000974,521069.761900231,330830.249499995,NA,431322.042600252,15937.3225001618,NA,NA,264013.393600006,13,26295.9402985871,14,1,0,1,23,"Physik",5,3,3,3,3,3
86.6666666666667,96,1785.58466657996,"a","speed","an1999ma","0","b","a","0","0","0",61,4,700,"Wed Apr 19 12:05:45 2023",2,"eher schwer","accuracy","Experiment.osexp","Bild_s2_b_2.png",1080,"ma",1999,"an","blaue","C:/Users/steff/Documents/Universität/Master Psychologie/SS 2022/Masterarbeit/Experiment/subject-14.csv",0,1,0,"l",10,10,"l","l",487.829700112343,487.829700112343,14,NA,522944.907100406,NA,431358.637900092,480355.766300112,523433.574700262,522637.006200384,100362.083500251,NA,NA,15140.7890003175,NA,475360.620600171,522644.232199993,522101.694900077,NA,520569.602600299,NA,480477.978100069,15956.6558999941,124343.598300125,153119.019300211,227090.33669997,244113.007400185,250766.162600368,480478.124200366,523433.670400176,NA,500121.778400149,472607.831200119,516871.519900393,425845.12560023,508264.12950037,474918.321799953,521800.798800308,NA,NA,NA,NA,NA,NA,431358.561899979,480470.912400167,NA,520569.529500324,NA,NA,522096.270299982,15141.9401001185,522945.101200137,15141.9679000974,522636.928200256,330830.249499995,NA,431322.042600252,15937.3225001618,NA,NA,264013.393600006,13,26783.7699986994,15,1,0,1,23,"Physik",5,3,3,3,3,3
87.5,96,1702.80456240289,"a","speed","an1999ma","1","b","a","0","1","0",62,4,700,"Wed Apr 19 12:05:45 2023",3,"sehr schwer","accuracy","Experiment.osexp","Bild_s1_b_20.png",1080,"ma",1999,"an","blaue","C:/Users/steff/Documents/Universität/Master Psychologie/SS 2022/Masterarbeit/Experiment/subject-14.csv",0,0,0,"l",15,15,"a","a",461.102999746799,461.102999746799,14,NA,524635.738000274,NA,431358.637900092,480355.766300112,525097.527800128,524327.662700322,100362.083500251,NA,NA,15140.7890003175,NA,475360.620600171,524334.623700008,523754.013000056,NA,523827.252800111,NA,480477.978100069,15956.6558999941,124343.598300125,153119.019300211,227090.33669997,244113.007400185,250766.162600368,480478.124200366,525097.607300151,NA,500121.778400149,472607.831200119,516871.519900393,425845.12560023,523453.254600056,474918.321799953,521800.798800308,NA,NA,NA,NA,NA,NA,431358.561899979,480470.912400167,NA,523827.179800253,NA,NA,523748.578700237,15141.9401001185,524635.829900391,15141.9679000974,524327.580900397,330830.249499995,NA,431322.042600252,15937.3225001618,NA,NA,264013.393600006,14,27244.8729984462,16,1,0,1,23,"Physik",5,3,3,3,3,3
88.2352941176471,96,1636.79612345774,"a","speed","an1999ma","1","o","l","0","1","0",63,4,700,"Wed Apr 19 12:05:45 2023",3,"sehr schwer","accuracy","Experiment.osexp","Bild_s1_o_8.png",1080,"ma",1999,"an","blaue","C:/Users/steff/Documents/Universität/Master Psychologie/SS 2022/Masterarbeit/Experiment/subject-14.csv",0,0,0,"l",20,20,"l","l",580.661100335419,580.661100335419,14,NA,526292.168000247,NA,431358.637900092,480355.766300112,526873.540000059,525984.124400187,100362.083500251,NA,NA,15140.7890003175,NA,475360.620600171,525991.084100213,525444.701800123,NA,523827.252800111,NA,480477.978100069,15956.6558999941,124343.598300125,153119.019300211,227090.33669997,244113.007400185,250766.162600368,480478.124200366,526873.614100274,NA,500121.778400149,472607.831200119,516871.519900393,425845.12560023,523453.254600056,474918.321799953,525144.013599958,NA,NA,NA,NA,NA,NA,431358.561899979,480470.912400167,NA,523827.179800253,NA,NA,525439.292000141,15141.9401001185,526292.258800007,15141.9679000974,525984.041900374,330830.249499995,NA,431322.042600252,15937.3225001618,NA,NA,264013.393600006,15,27825.5340987816,17,1,0,1,23,"Physik",5,3,3,3,3,3
100,96,34213.425400046,"a","accuracy","an1999ma","1","o","l","1","0","0",64,5,700,"Wed Apr 19 12:05:45 2023",3,"sehr schwer","accuracy","Experiment.osexp","Bild_s1_o_17.png",1080,"ma",1999,"an","blaue","C:/Users/steff/Documents/Universität/Master Psychologie/SS 2022/Masterarbeit/Experiment/subject-14.csv",0,0,0,"l",5,5,"l","l",1073.3299003914,1073.3299003914,14,NA,583031.429500319,577585.594000295,431358.637900092,532323.556600139,584105.615000241,582722.855099943,100362.083500251,532399.194499943,NA,15140.7890003175,NA,527328.317800071,582730.202900246,527184.512100182,582202.36070035,523827.252800111,577684.575600084,480477.978100069,15956.6558999941,124343.598300125,153119.019300211,227090.33669997,244113.007400185,250766.162600368,577684.711500071,584105.687200092,582201.544499956,500121.778400149,472607.831200119,516871.519900393,425845.12560023,523453.254600056,474918.321799953,526884.135500062,NA,NA,NA,NA,NA,577677.531800233,431358.561899979,480470.912400167,582202.318200376,523827.179800253,577585.528000258,577529.787500389,527179.153100122,15141.9401001185,583031.519399956,15141.9679000974,582722.653100267,330830.249499995,532394.824900199,532359.893400222,15937.3225001618,NA,NA,264013.393600006,3,102640.276200138,3,0,20,1,23,"Physik",5,3,3,3,3,3
100,96,25829.9105500337,"a","accuracy","an1999ma","1","o","l","1","0","0",65,5,700,"Wed Apr 19 12:05:45 2023",3,"sehr schwer","accuracy","Experiment.osexp","Bild_s1_o_25.png",1080,"ma",1999,"an","blaue","C:/Users/steff/Documents/Universität/Master Psychologie/SS 2022/Masterarbeit/Experiment/subject-14.csv",0,0,0,"l",10,10,"l","l",679.365999996662,679.365999996662,14,NA,585281.345100142,577585.594000295,431358.637900092,532323.556600139,585961.456700228,584973.581900354,100362.083500251,532399.194499943,NA,15140.7890003175,NA,527328.317800071,584980.685099959,584431.104599964,582202.36070035,523827.252800111,577684.575600084,480477.978100069,15956.6558999941,124343.598300125,153119.019300211,227090.33669997,244113.007400185,250766.162600368,577684.711500071,585961.524800397,582201.544499956,500121.778400149,472607.831200119,516871.519900393,425845.12560023,523453.254600056,584129.926400259,526884.135500062,NA,NA,NA,NA,NA,577677.531800233,431358.561899979,480470.912400167,582202.318200376,523827.179800253,577585.528000258,577529.787500389,584425.70240004,15141.9401001185,585281.507099979,15141.9679000974,584973.501800094,330830.249499995,532394.824900199,532359.893400222,15937.3225001618,NA,NA,264013.393600006,4,103319.642200135,4,0,20,1,23,"Physik",5,3,3,3,3,3
80,96,20819.0198799595,"a","accuracy","an1999ma","0","b","a","0","0","0",66,5,700,"Wed Apr 19 12:05:45 2023",3,"sehr schwer","accuracy","Experiment.osexp","Bild_s1_b_22.png",1080,"ma",1999,"an","blaue","C:/Users/steff/Documents/Universität/Master Psychologie/SS 2022/Masterarbeit/Experiment/subject-14.csv",1,0,0,"l",0,0,"l","l",775.457199662924,775.457199662924,14,NA,587121.241100132,577585.594000295,431358.637900092,532323.556600139,587897.575300187,586812.89099995,100362.083500251,532399.194499943,NA,15140.7890003175,NA,527328.317800071,586820.127600338,586281.841400079,582202.36070035,523827.252800111,577684.575600084,480477.978100069,15956.6558999941,124343.598300125,153119.019300211,227090.33669997,244113.007400185,250766.162600368,577684.711500071,587897.647700273,582201.544499956,500121.778400149,472607.831200119,516871.519900393,425845.12560023,523453.254600056,585981.053400319,526884.135500062,NA,NA,NA,NA,NA,577677.531800233,431358.561899979,480470.912400167,582202.318200376,523827.179800253,577585.528000258,577529.787500389,586276.501600165,15141.9401001185,587121.434000321,15141.9679000974,586812.81060027,330830.249499995,532394.824900199,532359.893400222,15937.3225001618,NA,NA,264013.393600006,4,104095.099399798,5,0,20,1,23,"Physik",5,3,3,3,3,3
83.3333333333333,96,17499.810166657,"a","accuracy","an1999ma","1","o","l","1","0","0",67,5,700,"Wed Apr 19 12:05:45 2023",3,"sehr schwer","accuracy","Experiment.osexp","Bild_s1_o_6.png",1080,"ma",1999,"an","blaue","C:/Users/steff/Documents/Universität/Master Psychologie/SS 2022/Masterarbeit/Experiment/subject-14.csv",0,0,0,"l",5,5,"l","l",903.761600144208,903.761600144208,14,NA,589072.914600372,577585.594000295,431358.637900092,532323.556600139,589977.538200095,588764.83310014,100362.083500251,532399.194499943,NA,15140.7890003175,NA,527328.317800071,588772.118400317,588224.876299966,582202.36070035,523827.252800111,577684.575600084,480477.978100069,15956.6558999941,124343.598300125,153119.019300211,227090.33669997,244113.007400185,250766.162600368,577684.711500071,589977.608400397,582201.544499956,500121.778400149,587924.216100015,516871.519900393,425845.12560023,523453.254600056,585981.053400319,526884.135500062,NA,NA,NA,NA,NA,577677.531800233,431358.561899979,480470.912400167,582202.318200376,523827.179800253,577585.528000258,577529.787500389,588219.472000375,15141.9401001185,589073.110800236,15141.9679000974,588764.754200354,330830.249499995,532394.824900199,532359.893400222,15937.3225001618,NA,NA,264013.393600006,5,104998.860999942,6,0,20,1,23,"Physik",5,3,3,3,3,3
85.7142857142857,96,15094.6014714427,"a","accuracy","an1999ma","1","o","l","1","0","0",68,5,700,"Wed Apr 19 12:05:45 2023",3,"sehr schwer","accuracy","Experiment.osexp","Bild_s1_o_5.png",1080,"ma",1999,"an","blaue","C:/Users/steff/Documents/Universität/Master Psychologie/SS 2022/Masterarbeit/Experiment/subject-14.csv",0,0,0,"l",10,10,"l","l",663.349300157279,663.349300157279,14,NA,591137.430500239,577585.594000295,431358.637900092,532323.556600139,591801.449900027,590829.059500247,100362.083500251,532399.194499943,NA,15140.7890003175,NA,527328.317800071,590836.262700148,590298.131000251,582202.36070035,523827.252800111,577684.575600084,480477.978100069,15956.6558999941,124343.598300125,153119.019300211,227090.33669997,244113.007400185,250766.162600368,577684.711500071,591801.519600209,582201.544499956,500121.778400149,587924.216100015,516871.519900393,425845.12560023,523453.254600056,589997.579799965,526884.135500062,NA,NA,NA,NA,NA,577677.531800233,431358.561899979,480470.912400167,582202.318200376,523827.179800253,577585.528000258,577529.787500389,590292.745599989,15141.9401001185,591137.518300209,15141.9679000974,590828.981400002,330830.249499995,532394.824900199,532359.893400222,15937.3225001618,NA,NA,264013.393600006,6,105662.210300099,7,0,20,1,23,"Physik",5,3,3,3,3,3
87.5,96,13296.1941375397,"a","accuracy","an1999ma","1","b","a","1","0","0",69,5,700,"Wed Apr 19 12:05:45 2023",3,"sehr schwer","accuracy","Experiment.osexp","Bild_s1_b_20.png",1080,"ma",1999,"an","blaue","C:/Users/steff/Documents/Universität/Master Psychologie/SS 2022/Masterarbeit/Experiment/subject-14.csv",0,0,0,"l",15,15,"a","a",707.342800218612,707.342800218612,14,NA,592981.347400229,577585.594000295,431358.637900092,532323.556600139,593689.507900272,592673.308900092,100362.083500251,532399.194499943,NA,15140.7890003175,NA,527328.317800071,592680.585999973,592131.296900101,582202.36070035,523827.252800111,577684.575600084,480477.978100069,15956.6558999941,124343.598300125,153119.019300211,227090.33669997,244113.007400185,250766.162600368,577684.711500071,593689.577000216,582201.544499956,500121.778400149,587924.216100015,516871.519900393,425845.12560023,523453.254600056,591830.296800006,526884.135500062,NA,NA,NA,NA,NA,577677.531800233,431358.561899979,480470.912400167,582202.318200376,523827.179800253,577585.528000258,577529.787500389,592125.819200184,15141.9401001185,592981.52180016,15141.9679000974,592673.228099942,330830.249499995,532394.824900199,532359.893400222,15937.3225001618,NA,NA,264013.393600006,7,106369.553100318,8,0,20,1,23,"Physik",5,3,3,3,3,3
77.7777777777778,96,11923.4863777852,"a","accuracy","an1999ma","0","o","l","0","0","0",70,5,700,"Wed Apr 19 12:05:45 2023",3,"sehr schwer","accuracy","Experiment.osexp","Bild_s1_o_4.png",1080,"ma",1999,"an","blaue","C:/Users/steff/Documents/Universität/Master Psychologie/SS 2022/Masterarbeit/Experiment/subject-14.csv",1,0,0,"l",5,5,"a","a",941.824299748987,941.824299748987,14,NA,594858.958600089,577585.594000295,431358.637900092,532323.556600139,595801.476800349,594550.473200157,100362.083500251,532399.194499943,NA,15140.7890003175,NA,527328.317800071,594557.419999968,594006.848799996,582202.36070035,523827.252800111,577684.575600084,480477.978100069,15956.6558999941,124343.598300125,153119.019300211,227090.33669997,244113.007400185,250766.162600368,577684.711500071,595801.548799966,582201.544499956,500121.778400149,587924.216100015,516871.519900393,425845.12560023,523453.254600056,593706.550800242,526884.135500062,NA,NA,NA,NA,NA,577677.531800233,431358.561899979,480470.912400167,582202.318200376,523827.179800253,577585.528000258,577529.787500389,594001.518000383,15141.9401001185,594859.043100383,15141.9679000974,594550.389199983,330830.249499995,532394.824900199,532359.893400222,15937.3225001618,NA,NA,264013.393600006,7,107311.377400067,9,0,20,1,23,"Physik",5,3,3,3,3,3
80,96,10802.3121000268,"a","accuracy","an1999ma","1","b","a","1","0","0",71,5,700,"Wed Apr 19 12:05:45 2023",3,"sehr schwer","accuracy","Experiment.osexp","Bild_s1_b_19.png",1080,"ma",1999,"an","blaue","C:/Users/steff/Documents/Universität/Master Psychologie/SS 2022/Masterarbeit/Experiment/subject-14.csv",0,0,0,"l",10,10,"a","a",711.743600200862,711.743600200862,14,NA,596976.937999949,577585.594000295,431358.637900092,532323.556600139,597689.53870004,596669.172400143,100362.083500251,532399.194499943,NA,15140.7890003175,NA,527328.317800071,596676.225600298,596128.804600332,582202.36070035,523827.252800111,577684.575600084,480477.978100069,15956.6558999941,124343.598300125,153119.019300211,227090.33669997,244113.007400185,250766.162600368,577684.711500071,597689.608100336,582201.544499956,500121.778400149,595828.095100354,516871.519900393,425845.12560023,523453.254600056,593706.550800242,526884.135500062,NA,NA,NA,NA,NA,577677.531800233,431358.561899979,480470.912400167,582202.318200376,523827.179800253,577585.528000258,577529.787500389,596123.396500014,15141.9401001185,596977.119700052,15141.9679000974,596669.089800213,330830.249499995,532394.824900199,532359.893400222,15937.3225001618,NA,NA,264013.393600006,8,108023.121000268,10,0,20,1,23,"Physik",5,3,3,3,3,3
81.8181818181818,96,9876.23976365748,"a","accuracy","an1999ma","1","o","l","1","0","0",72,5,700,"Wed Apr 19 12:05:45 2023",3,"sehr schwer","accuracy","Experiment.osexp","Bild_s1_o_7.png",1080,"ma",1999,"an","blaue","C:/Users/steff/Documents/Universität/Master Psychologie/SS 2022/Masterarbeit/Experiment/subject-14.csv",0,0,0,"l",15,15,"l","l",615.51639996469,615.51639996469,14,NA,598897.267500404,577585.594000295,431358.637900092,532323.556600139,599513.450700324,598587.485300377,100362.083500251,532399.194499943,NA,15140.7890003175,NA,527328.317800071,598594.745800365,598019.01639998,598091.760599986,523827.252800111,577684.575600084,480477.978100069,15956.6558999941,124343.598300125,153119.019300211,227090.33669997,244113.007400185,250766.162600368,577684.711500071,599513.529200107,582201.544499956,500121.778400149,595828.095100354,516871.519900393,425845.12560023,523453.254600056,597718.390900176,526884.135500062,NA,NA,NA,NA,NA,577677.531800233,431358.561899979,480470.912400167,598091.687600128,523827.179800253,577585.528000258,577529.787500389,598013.564200141,15141.9401001185,598897.356700152,15141.9679000974,598587.406800129,330830.249499995,532394.824900199,532359.893400222,15937.3225001618,NA,NA,264013.393600006,9,108638.637400232,11,0,20,1,23,"Physik",5,3,3,3,3,3
75,96,9110.48175836913,"a","accuracy","an1999ma","0","b","a","0","0","0",73,5,700,"Wed Apr 19 12:05:45 2023",3,"sehr schwer","accuracy","Experiment.osexp","Bild_s1_b_6.png",1080,"ma",1999,"an","blaue","C:/Users/steff/Documents/Universität/Master Psychologie/SS 2022/Masterarbeit/Experiment/subject-14.csv",1,0,0,"l",5,5,"l","l",687.143700197339,687.143700197339,14,NA,600697.660699952,577585.594000295,431358.637900092,532323.556600139,601385.691200383,600387.706000358,100362.083500251,532399.194499943,NA,15140.7890003175,NA,527328.317800071,600394.624100067,599829.985400196,598091.760599986,523827.252800111,577684.575600084,480477.978100069,15956.6558999941,124343.598300125,153119.019300211,227090.33669997,244113.007400185,250766.162600368,577684.711500071,601385.764900129,582201.544499956,500121.778400149,595828.095100354,516871.519900393,425845.12560023,523453.254600056,599529.152600095,526884.135500062,NA,NA,NA,NA,NA,577677.531800233,431358.561899979,480470.912400167,598091.687600128,523827.179800253,577585.528000258,577529.787500389,599824.607900344,15141.9401001185,600697.749500163,15141.9679000974,600387.62579998,330830.249499995,532394.824900199,532359.893400222,15937.3225001618,NA,NA,264013.393600006,9,109325.78110043,12,0,20,1,23,"Physik",5,3,3,3,3,3
69.2307692307692,96,8468.4108769736,"a","accuracy","an1999ma","0","o","l","0","0","0",74,5,700,"Wed Apr 19 12:05:45 2023",3,"sehr schwer","accuracy","Experiment.osexp","Bild_s1_o_19.png",1080,"ma",1999,"an","blaue","C:/Users/steff/Documents/Universität/Master Psychologie/SS 2022/Masterarbeit/Experiment/subject-14.csv",1,0,0,"l",-5,-5,"a","a",763.560300227255,763.560300227255,14,NA,602557.221000083,577585.594000295,431358.637900092,532323.556600139,603321.484399959,602249.085600022,100362.083500251,532399.194499943,NA,15140.7890003175,NA,527328.317800071,602256.029900163,601701.626600232,598091.760599986,523827.252800111,577684.575600084,480477.978100069,15956.6558999941,124343.598300125,153119.019300211,227090.33669997,244113.007400185,250766.162600368,577684.711500071,603321.555500384,582201.544499956,500121.778400149,601400.782300159,516871.519900393,425845.12560023,523453.254600056,599529.152600095,526884.135500062,NA,NA,NA,NA,NA,577677.531800233,431358.561899979,480470.912400167,598091.687600128,523827.179800253,577585.528000258,577529.787500389,601696.2255002,15141.9401001185,602557.312299963,15141.9679000974,602249.006099999,330830.249499995,532394.824900199,532359.893400222,15937.3225001618,NA,NA,264013.393600006,9,110089.341400657,13,0,20,1,23,"Physik",5,3,3,3,3,3
64.2857142857143,96,7909.39322147252,"a","accuracy","an1999ma","0","o","l","0","0","0",75,5,700,"Wed Apr 19 12:05:45 2023",3,"sehr schwer","accuracy","Experiment.osexp","Bild_s1_o_12.png",1080,"ma",1999,"an","blaue","C:/Users/steff/Documents/Universität/Master Psychologie/SS 2022/Masterarbeit/Experiment/subject-14.csv",1,0,0,"l",-15,-15,"a","a",642.163699958473,642.163699958473,14,NA,604486.50420038,577585.594000295,431358.637900092,532323.556600139,605129.510500003,604178.135600407,100362.083500251,532399.194499943,NA,15140.7890003175,NA,527328.317800071,604185.615600087,603636.93660032,598091.760599986,523827.252800111,577684.575600084,480477.978100069,15956.6558999941,124343.598300125,153119.019300211,227090.33669997,244113.007400185,250766.162600368,577684.711500071,605129.582900088,582201.544499956,500121.778400149,603335.975200403,516871.519900393,425845.12560023,523453.254600056,599529.152600095,526884.135500062,NA,NA,NA,NA,NA,577677.531800233,431358.561899979,480470.912400167,598091.687600128,523827.179800253,577585.528000258,577529.787500389,603631.564900279,15141.9401001185,604486.688700039,15141.9679000974,604178.054400254,330830.249499995,532394.824900199,532359.893400222,15937.3225001618,NA,NA,264013.393600006,9,110731.505100615,14,0,20,1,23,"Physik",5,3,3,3,3,3
66.6666666666667,96,7432.68594002972,"a","accuracy","an1999ma","1","b","a","1","0","0",76,5,700,"Wed Apr 19 12:05:45 2023",3,"sehr schwer","accuracy","Experiment.osexp","Bild_s1_b_12.png",1080,"ma",1999,"an","blaue","C:/Users/steff/Documents/Universität/Master Psychologie/SS 2022/Masterarbeit/Experiment/subject-14.csv",0,0,0,"l",-10,-10,"a","a",758.783999830484,758.783999830484,14,NA,606289.907200262,577585.594000295,431358.637900092,532323.556600139,607049.477300141,605981.589100324,100362.083500251,532399.194499943,NA,15140.7890003175,NA,527328.317800071,605988.961100113,605449.034400284,598091.760599986,523827.252800111,577684.575600084,480477.978100069,15956.6558999941,124343.598300125,153119.019300211,227090.33669997,244113.007400185,250766.162600368,577684.711500071,607049.546900205,582201.544499956,500121.778400149,605148.567500059,516871.519900393,425845.12560023,523453.254600056,599529.152600095,526884.135500062,NA,NA,NA,NA,NA,577677.531800233,431358.561899979,480470.912400167,598091.687600128,523827.179800253,577585.528000258,577529.787500389,605443.617500365,15141.9401001185,606290.068200324,15141.9679000974,605981.510300189,330830.249499995,532394.824900199,532359.893400222,15937.3225001618,NA,NA,264013.393600006,10,111490.289100446,15,0,20,1,23,"Physik",5,3,3,3,3,3
68.75,96,7016.39853126835,"a","accuracy","an1999ma","1","b","a","1","0","0",77,5,700,"Wed Apr 19 12:05:45 2023",3,"sehr schwer","accuracy","Experiment.osexp","Bild_s1_b_15.png",1080,"ma",1999,"an","blaue","C:/Users/steff/Documents/Universität/Master Psychologie/SS 2022/Masterarbeit/Experiment/subject-14.csv",0,0,0,"l",-5,-5,"a","a",772.087399847806,772.087399847806,14,NA,608228.67800016,577585.594000295,431358.637900092,532323.556600139,609001.733400393,607920.147800352,100362.083500251,532399.194499943,NA,15140.7890003175,NA,527328.317800071,607926.916900091,607380.013700109,598091.760599986,523827.252800111,577684.575600084,480477.978100069,15956.6558999941,124343.598300125,153119.019300211,227090.33669997,244113.007400185,250766.162600368,577684.711500071,609001.804600004,582201.544499956,500121.778400149,605148.567500059,516871.519900393,425845.12560023,523453.254600056,607079.206500202,526884.135500062,NA,NA,NA,NA,NA,577677.531800233,431358.561899979,480470.912400167,598091.687600128,523827.179800253,577585.528000258,577529.787500389,607374.566200189,15141.9401001185,608228.767800145,15141.9679000974,607920.008600224,330830.249499995,532394.824900199,532359.893400222,15937.3225001618,NA,NA,264013.393600006,11,112262.376500294,16,0,20,1,23,"Physik",5,3,3,3,3,3
70.5882352941177,96,6681.54480001506,"a","accuracy","an1999ma","1","b","a","1","0","0",78,5,700,"Wed Apr 19 12:05:45 2023",3,"sehr schwer","accuracy","Experiment.osexp","Bild_s1_b_16.png",1080,"ma",1999,"an","blaue","C:/Users/steff/Documents/Universität/Master Psychologie/SS 2022/Masterarbeit/Experiment/subject-14.csv",0,0,0,"l",0,0,"a","a",1323.88509996235,1323.88509996235,14,NA,610172.883500345,577585.594000295,431358.637900092,532323.556600139,611497.427199967,609864.611300174,100362.083500251,532399.194499943,NA,15140.7890003175,NA,527328.317800071,609871.690200176,609315.286500379,598091.760599986,523827.252800111,577684.575600084,480477.978100069,15956.6558999941,124343.598300125,153119.019300211,227090.33669997,244113.007400185,250766.162600368,577684.711500071,611497.497500386,582201.544499956,500121.778400149,605148.567500059,516871.519900393,425845.12560023,523453.254600056,609014.743600041,526884.135500062,NA,NA,NA,NA,NA,577677.531800233,431358.561899979,480470.912400167,598091.687600128,523827.179800253,577585.528000258,577529.787500389,609309.903900139,15141.9401001185,610172.973200213,15141.9679000974,609864.528600127,330830.249499995,532394.824900199,532359.893400222,15937.3225001618,NA,NA,264013.393600006,12,113586.261600256,17,0,20,1,23,"Physik",5,3,3,3,3,3
66.6666666666667,96,6375.31543334222,"a","accuracy","an1999ma","0","b","a","0","0","0",79,5,700,"Wed Apr 19 12:05:45 2023",3,"sehr schwer","accuracy","Experiment.osexp","Bild_s1_b_3.png",1080,"ma",1999,"an","blaue","C:/Users/steff/Documents/Universität/Master Psychologie/SS 2022/Masterarbeit/Experiment/subject-14.csv",1,0,0,"l",-10,-10,"l","l",1169.41619990394,1169.41619990394,14,NA,612663.357800338,577585.594000295,431358.637900092,532323.556600139,613833.61630002,612355.171800125,100362.083500251,532399.194499943,NA,15140.7890003175,NA,527328.317800071,612362.167800311,611813.651700038,598091.760599986,523827.252800111,577684.575600084,480477.978100069,15956.6558999941,124343.598300125,153119.019300211,227090.33669997,244113.007400185,250766.162600368,577684.711500071,613833.6879001,582201.544499956,500121.778400149,605148.567500059,516871.519900393,425845.12560023,523453.254600056,611513.459500391,526884.135500062,NA,NA,NA,NA,NA,577677.531800233,431358.561899979,480470.912400167,598091.687600128,523827.179800253,577585.528000258,577529.787500389,611808.29429999,15141.9401001185,612663.446800318,15141.9679000974,612355.09070009,330830.249499995,532394.824900199,532359.893400222,15937.3225001618,NA,NA,264013.393600006,12,114755.67780016,18,0,20,1,23,"Physik",5,3,3,3,3,3
68.4210526315789,96,6072.6299315789,"a","accuracy","an1999ma","1","o","l","1","0","0",80,5,700,"Wed Apr 19 12:05:45 2023",2,"eher schwer","accuracy","Experiment.osexp","Bild_s2_o_3.png",1080,"ma",1999,"an","blaue","C:/Users/steff/Documents/Universität/Master Psychologie/SS 2022/Masterarbeit/Experiment/subject-14.csv",0,0,0,"l",-5,-5,"l","l",624.290899839252,624.290899839252,14,NA,615048.508900218,577585.594000295,431358.637900092,532323.556600139,615673.620600253,614740.586200263,100362.083500251,532399.194499943,NA,15140.7890003175,NA,527328.317800071,614747.502900194,614159.776600078,614238.829600159,523827.252800111,577684.575600084,480477.978100069,15956.6558999941,124343.598300125,153119.019300211,227090.33669997,244113.007400185,250766.162600368,577684.711500071,615673.69180033,582201.544499956,500121.778400149,613859.107400291,516871.519900393,425845.12560023,523453.254600056,611513.459500391,526884.135500062,NA,NA,NA,NA,NA,577677.531800233,431358.561899979,480470.912400167,614238.755800296,523827.179800253,577585.528000258,577529.787500389,614154.425499961,15141.9401001185,615048.60400036,15141.9679000974,614740.50049996,330830.249499995,532394.824900199,532359.893400222,15937.3225001618,NA,NA,264013.393600006,13,115379.968699999,19,0,20,1,23,"Physik",5,3,3,3,3,3
70,96,5805.44688999653,"a","accuracy","an1999ma","1","o","l","1","0","0",81,5,700,"Wed Apr 19 12:05:45 2023",2,"eher schwer","accuracy","Experiment.osexp","Bild_s2_o_2.png",1080,"ma",1999,"an","blaue","C:/Users/steff/Documents/Universität/Master Psychologie/SS 2022/Masterarbeit/Experiment/subject-14.csv",0,0,0,"l",0,0,"l","l",728.969099931419,728.969099931419,14,NA,616831.723700278,577585.594000295,431358.637900092,532323.556600139,617561.4845003,616523.72850012,100362.083500251,532399.194499943,NA,15140.7890003175,NA,527328.317800071,616531.013499945,615990.371600259,614238.829600159,523827.252800111,577684.575600084,480477.978100069,15956.6558999941,124343.598300125,153119.019300211,227090.33669997,244113.007400185,250766.162600368,577684.711500071,617561.553300358,582201.544499956,500121.778400149,613859.107400291,516871.519900393,425845.12560023,523453.254600056,615689.871900249,526884.135500062,NA,NA,NA,NA,NA,577677.531800233,431358.561899979,480470.912400167,614238.755800296,523827.179800253,577585.528000258,577529.787500389,615984.996499959,15141.9401001185,616831.885000225,15141.9679000974,616523.649000097,330830.249499995,532394.824900199,532359.893400222,15937.3225001618,NA,NA,264013.393600006,14,116108.937799931,20,0,20,1,23,"Physik",5,3,3,3,3,3
71.4285714285714,96,5565.41138095781,"a","accuracy","an1999ma","1","o","l","1","0","0",82,5,700,"Wed Apr 19 12:05:45 2023",2,"eher schwer","accuracy","Experiment.osexp","Bild_s2_o_14.png",1080,"ma",1999,"an","blaue","C:/Users/steff/Documents/Universität/Master Psychologie/SS 2022/Masterarbeit/Experiment/subject-14.csv",0,0,0,"l",5,5,"l","l",764.701200183481,764.701200183481,14,NA,618732.061600313,577585.594000295,431358.637900092,532323.556600139,619497.568900231,618424.231000245,100362.083500251,532399.194499943,NA,15140.7890003175,NA,527328.317800071,618431.173300371,617886.829100084,614238.829600159,523827.252800111,577684.575600084,480477.978100069,15956.6558999941,124343.598300125,153119.019300211,227090.33669997,244113.007400185,250766.162600368,577684.711500071,619497.640400194,582201.544499956,500121.778400149,613859.107400291,516871.519900393,425845.12560023,523453.254600056,617586.165900342,526884.135500062,NA,NA,NA,NA,NA,577677.531800233,431358.561899979,480470.912400167,614238.755800296,523827.179800253,577585.528000258,577529.787500389,617881.444199942,15141.9401001185,618732.144100126,15141.9679000974,618424.153100234,330830.249499995,532394.824900199,532359.893400222,15937.3225001618,NA,NA,264013.393600006,15,116873.639000114,21,0,20,1,23,"Physik",5,3,3,3,3,3
72.7272727272727,96,5349.38750911335,"a","accuracy","an1999ma","1","o","l","1","0","0",83,5,700,"Wed Apr 19 12:05:45 2023",2,"eher schwer","accuracy","Experiment.osexp","Bild_s2_o_25.png",1080,"ma",1999,"an","blaue","C:/Users/steff/Documents/Universität/Master Psychologie/SS 2022/Masterarbeit/Experiment/subject-14.csv",0,0,0,"l",10,10,"l","l",812.88620037958,812.88620037958,14,NA,620683.763300069,577585.594000295,431358.637900092,532323.556600139,621497.673700098,620375.230200123,100362.083500251,532399.194499943,NA,15140.7890003175,NA,527328.317800071,620382.519100327,619828.011699952,614238.829600159,523827.252800111,577684.575600084,480477.978100069,15956.6558999941,124343.598300125,153119.019300211,227090.33669997,244113.007400185,250766.162600368,577684.711500071,621497.74740031,582201.544499956,500121.778400149,613859.107400291,516871.519900393,425845.12560023,523453.254600056,619527.48200018,526884.135500062,NA,NA,NA,NA,NA,577677.531800233,431358.561899979,480470.912400167,614238.755800296,523827.179800253,577585.528000258,577529.787500389,619822.610800155,15141.9401001185,620683.965899982,15141.9679000974,620375.150400214,330830.249499995,532394.824900199,532359.893400222,15937.3225001618,NA,NA,264013.393600006,16,117686.525200494,22,0,20,1,23,"Physik",5,3,3,3,3,3
