"accuracy","anzahl_gruppen","avg_rt","blauetaste","block","code","correct","correct_colour","correct_response","correct1","correct2","correct3","count_bildstimulus_3_1","count_block","cutoff","datetime","difficulty","difficulty_f","erstebedingung","experiment_file","filename","height","id_geburtsort","id_jahr","id_vater","linketaste","logfile","loose1","loose2","loose3","orangenetaste","punkte1","punkteimblock","response","response_tasteresponse_3_1","response_time","response_time_tasteresponse_3_1","subject_nr","time_bildershuffle","time_bildstimulus_3_1","time_block","time_block_tut","time_blockwerte_zuruecksetzten","time_cutoff_werte_und_punkte_3_1","time_definecorrectcolour_3_1","time_eingabemaske_kuerzel_python","time_ende_tutorial_1","time_ende_experimentierungsphase","time_experiment","time_feedback_serie","time_feedback_tutorial","time_fixationcross_3_1","time_grauesbild_3_1","time_gruppe_block","time_gruppe_tutorial","time_instruktionen_block","time_instruktionen_tutorial_1","time_introduction_1","time_introduction_2_1","time_introduction_3_punkte","time_introduction_3_speed","time_introduction_4_accuracy","time_introduction_5_feedback","time_leertaste_fuer_naechsten_bildschirm","time_logger_3_1","time_loop_block","time_loop_block_tut","time_minifeedbacknegativ_acc","time_minifeedbacknegativ_speed_slow","time_minifeedbacknegativ_speed_slowandwrong","time_minifeedbacknegativ_speed_wrong","time_minifeedbackpositiv_acc","time_minifeedbackpositiv_speed","time_new_inline_script","time_pause_zwischen_serie_1","time_pause_zwischen_serie_2","time_reset_feedback","time_reset_feedback_1","time_sequenz_block","time_sequenz_block_tut","time_sequenz_block_tut_1","time_sequenz_gruppe","time_sequenz_gruppe_tut","time_sequenz_serie","time_serie","time_set_to_zero","time_start","time_tasteresponse_3_1","time_testloopprepareglitchtutorial","time_trial_3_1","time_tutorial","time_tutorial_ende","time_tutorial_wiederholungscheck","time_vorgeplaenkel","time_warnhinweis_3sek","time_warnhinweis_5sek","time_warnung_tutorial_1","total_correct","total_response_time","total_responses","tutorial","tutorialpunkte","geschlecht","alter","studiengang","bildungsabschluss","haendig1","haendig2","haendig3","haendig4","haendig_mean"
88.8888888888889,96,59320.7401333333,"a","accuracy","si2001fr","0","o","l","0","0","0",0,1,700,"Thu Apr 20 09:55:06 2023",3,"sehr schwer","speed","Experiment.osexp","Bild_s1_o_2.png",1080,"fr",2001,"si","blaue","C:/Users/steff/Documents/Universität/Master Psychologie/SS 2022/Masterarbeit/Experiment/subject-16.csv",1,0,0,"l",-10,-10,"a","a",2761.00830000007,2761.00830000007,16,NA,186770.3821,NA,181877.5145,NA,189532.2632,186461.1918,24204.7700000001,NA,NA,14723.2996,NA,NA,186468.6065,NA,NA,185933.1716,NA,181982.9031,15525.4514000001,46290.1845,60913.8432000001,73589.0575000001,90564.2945000001,98608.1051,181983.0199,189532.3351,NA,185932.2034,NA,NA,NA,NA,NA,NA,NA,NA,NA,NA,NA,NA,181877.337,181975.5096,NA,185933.1279,NA,NA,NA,14723.477,186770.4675,14723.5006000001,186460.9908,181876.5649,NA,NA,15495.4784,NA,NA,106320.4461,8,533886.6612,9,1,0,1,22,"Psychologie",5,3,3,3,3,3
90,96,53538.79957,"a","accuracy","si2001fr","1","b","a","1","0","0",1,1,700,"Thu Apr 20 09:55:06 2023",3,"sehr schwer","speed","Experiment.osexp","Bild_s1_b_10.png",1080,"fr",2001,"si","blaue","C:/Users/steff/Documents/Universität/Master Psychologie/SS 2022/Masterarbeit/Experiment/subject-16.csv",0,0,0,"l",-5,-5,"a","a",1501.33449999997,1501.33449999997,16,NA,190717.9401,NA,181877.5145,NA,192219.96,190409.6313,24204.7700000001,NA,NA,14723.2996,NA,NA,190416.8269,189863.8949,NA,185933.1716,NA,181982.9031,15525.4514000001,46290.1845,60913.8432000001,73589.0575000001,90564.2945000001,98608.1051,181983.0199,192220.0328,NA,185932.2034,189562.7384,NA,NA,NA,NA,NA,NA,NA,NA,NA,NA,NA,181877.337,181975.5096,NA,185933.1279,NA,NA,189858.3379,14723.477,190718.1195,14723.5006000001,190409.5522,181876.5649,NA,NA,15495.4784,NA,NA,106320.4461,9,535387.9957,10,1,0,1,22,"Psychologie",5,3,3,3,3,3
90.9090909090909,96,48786.4442636363,"a","accuracy","si2001fr","1","o","l","1","0","0",2,1,700,"Thu Apr 20 09:55:06 2023",2,"eher schwer","speed","Experiment.osexp","Bild_s2_o_2.png",1080,"fr",2001,"si","blaue","C:/Users/steff/Documents/Universität/Master Psychologie/SS 2022/Masterarbeit/Experiment/subject-16.csv",0,0,0,"l",0,0,"l","l",1262.8911999999,1262.8911999999,16,NA,193452.3938,NA,181877.5145,NA,194716.0321,193144.6236,24204.7700000001,NA,NA,14723.2996,NA,NA,193151.655,192571.0887,NA,192651.1606,NA,181982.9031,15525.4514000001,46290.1845,60913.8432000001,73589.0575000001,90564.2945000001,98608.1051,181983.0199,194716.102,NA,185932.2034,189562.7384,NA,NA,NA,192269.9909,NA,NA,NA,NA,NA,NA,NA,181877.337,181975.5096,NA,192651.0821,NA,NA,192565.6221,14723.477,193452.4941,14723.5006000001,193144.5454,181876.5649,NA,NA,15495.4784,NA,NA,106320.4461,10,536650.886899999,11,1,0,1,22,"Psychologie",5,3,3,3,3,3
83.3333333333333,96,44835.3583166666,"a","accuracy","si2001fr","0","o","l","0","0","0",3,1,700,"Thu Apr 20 09:55:06 2023",2,"eher schwer","speed","Experiment.osexp","Bild_s2_o_13.png",1080,"fr",2001,"si","blaue","C:/Users/steff/Documents/Universität/Master Psychologie/SS 2022/Masterarbeit/Experiment/subject-16.csv",1,0,0,"l",-10,-10,"a","a",1373.41289999994,1373.41289999994,16,NA,195885.9153,NA,181877.5145,NA,197260.1767,195577.8091,24204.7700000001,NA,NA,14723.2996,NA,NA,195584.7856,195041.5931,NA,192651.1606,NA,181982.9031,15525.4514000001,46290.1845,60913.8432000001,73589.0575000001,90564.2945000001,98608.1051,181983.0199,197260.2468,NA,185932.2034,189562.7384,NA,NA,NA,194740.6989,NA,NA,NA,NA,NA,NA,NA,181877.337,181975.5096,NA,192651.0821,NA,NA,195036.1528,14723.477,195886.0057,14723.5006000001,195577.7296,181876.5649,NA,NA,15495.4784,NA,NA,106320.4461,10,538024.299799999,12,1,0,1,22,"Psychologie",5,3,3,3,3,3
84.6153846153846,96,41482.7748307692,"a","accuracy","si2001fr","1","b","a","1","0","0",4,1,700,"Thu Apr 20 09:55:06 2023",1,"eher leicht","speed","Experiment.osexp","Bild_s3_b_7.png",1080,"fr",2001,"si","blaue","C:/Users/steff/Documents/Universität/Master Psychologie/SS 2022/Masterarbeit/Experiment/subject-16.csv",0,0,0,"l",-5,-5,"a","a",1251.77300000007,1251.77300000007,16,NA,198487.5396,NA,181877.5145,NA,199740.0372,198179.6829,24204.7700000001,NA,NA,14723.2996,NA,NA,198186.5768,197585.8985,NA,197673.914,NA,181982.9031,15525.4514000001,46290.1845,60913.8432000001,73589.0575000001,90564.2945000001,98608.1051,181983.0199,199740.1088,NA,185932.2034,197285.1422,NA,NA,NA,194740.6989,NA,NA,NA,NA,NA,NA,NA,181877.337,181975.5096,NA,197673.8444,NA,NA,197580.5015,14723.477,198487.6296,14723.5006000001,198179.6043,181876.5649,NA,NA,15495.4784,NA,NA,106320.4461,11,539276.072799999,13,1,0,1,22,"Psychologie",5,3,3,3,3,3
85.7142857142857,96,38642.1533071428,"a","accuracy","si2001fr","1","o","l","1","0","0",5,1,700,"Thu Apr 20 09:55:06 2023",1,"eher leicht","speed","Experiment.osexp","Bild_s3_o_6.png",1080,"fr",2001,"si","blaue","C:/Users/steff/Documents/Universität/Master Psychologie/SS 2022/Masterarbeit/Experiment/subject-16.csv",0,0,0,"l",0,0,"l","l",1714.07350000003,1714.07350000003,16,NA,200921.2416,NA,181877.5145,NA,202635.9866,200613.1976,24204.7700000001,NA,NA,14723.2996,NA,NA,200620.1679,200056.8067,NA,197673.914,NA,181982.9031,15525.4514000001,46290.1845,60913.8432000001,73589.0575000001,90564.2945000001,98608.1051,181983.0199,202636.058,NA,185932.2034,197285.1422,NA,NA,NA,199755.9677,NA,NA,NA,NA,NA,NA,NA,181877.337,181975.5096,NA,197673.8444,NA,NA,200051.3284,14723.477,200921.3448,14723.5006000001,200613.1179,181876.5649,NA,NA,15495.4784,NA,NA,106320.4461,12,540990.1463,14,1,0,1,22,"Psychologie",5,3,3,3,3,3
86.6666666666667,96,36170.2837466666,"a","accuracy","si2001fr","1","o","l","1","0","0",6,1,700,"Thu Apr 20 09:55:06 2023",0,"sehr leicht","speed","Experiment.osexp","Bild_s4_o_7.png",1080,"fr",2001,"si","blaue","C:/Users/steff/Documents/Universität/Master Psychologie/SS 2022/Masterarbeit/Experiment/subject-16.csv",0,0,0,"l",5,5,"l","l",1564.10989999995,1564.10989999995,16,NA,203839.0899,NA,181877.5145,NA,205404.1204,203531.0523,24204.7700000001,NA,NA,14723.2996,NA,NA,203538.0279,202966.6753,NA,203042.9581,NA,181982.9031,15525.4514000001,46290.1845,60913.8432000001,73589.0575000001,90564.2945000001,98608.1051,181983.0199,205404.1902,NA,185932.2034,197285.1422,NA,NA,NA,202665.8714,NA,NA,NA,NA,NA,NA,NA,181877.337,181975.5096,NA,203042.8834,NA,NA,202961.1413,14723.477,203839.2852,14723.5006000001,203530.9705,181876.5649,NA,NA,15495.4784,NA,NA,106320.4461,13,542554.256199999,15,1,0,1,22,"Psychologie",5,3,3,3,3,3
87.5,96,34024.55004375,"a","accuracy","si2001fr","1","o","l","1","0","0",7,1,700,"Thu Apr 20 09:55:06 2023",0,"sehr leicht","speed","Experiment.osexp","Bild_s4_o_5.png",1080,"fr",2001,"si","blaue","C:/Users/steff/Documents/Universität/Master Psychologie/SS 2022/Masterarbeit/Experiment/subject-16.csv",0,0,0,"l",10,10,"l","l",1838.54450000002,1838.54450000002,16,NA,206572.6921,NA,181877.5145,NA,208412.2012,206264.7923,24204.7700000001,NA,NA,14723.2996,NA,NA,206271.8131,205729.2959,NA,203042.9581,NA,181982.9031,15525.4514000001,46290.1845,60913.8432000001,73589.0575000001,90564.2945000001,98608.1051,181983.0199,208412.2732,NA,185932.2034,197285.1422,NA,NA,NA,205429.1976,NA,NA,NA,NA,NA,NA,NA,181877.337,181975.5096,NA,203042.8834,NA,NA,205723.9053,14723.477,206572.8978,14723.5006000001,206264.7132,181876.5649,NA,NA,15495.4784,NA,NA,106320.4461,14,544392.800699999,16,1,0,1,22,"Psychologie",5,3,3,3,3,3
88.2352941176471,96,32156.4750117647,"a","accuracy","si2001fr","1","o","l","1","0","0",8,1,700,"Thu Apr 20 09:55:06 2023",0,"sehr leicht","speed","Experiment.osexp","Bild_s4_o_6.png",1080,"fr",2001,"si","blaue","C:/Users/steff/Documents/Universität/Master Psychologie/SS 2022/Masterarbeit/Experiment/subject-16.csv",0,0,0,"l",15,15,"l","l",2267.27449999997,2267.27449999997,16,NA,209616.0692,NA,181877.5145,NA,211883.9916,209308.5135,24204.7700000001,NA,NA,14723.2996,NA,NA,209315.3422,208738.131,NA,208812.5975,NA,181982.9031,15525.4514000001,46290.1845,60913.8432000001,73589.0575000001,90564.2945000001,98608.1051,181983.0199,211884.0622,NA,185932.2034,197285.1422,NA,NA,NA,208437.222,NA,NA,NA,NA,NA,NA,NA,181877.337,181975.5096,NA,208812.5218,NA,NA,208732.625,14723.477,209616.1571,14723.5006000001,209308.4326,181876.5649,NA,NA,15495.4784,NA,NA,106320.4461,15,546660.075199999,17,1,0,1,22,"Psychologie",5,3,3,3,3,3
88.8888888888889,96,30484.7088833333,"a","accuracy","si2001fr","1","o","l","1","0","0",9,1,700,"Thu Apr 20 09:55:06 2023",0,"sehr leicht","speed","Experiment.osexp","Bild_s4_o_12.png",1080,"fr",2001,"si","blaue","C:/Users/steff/Documents/Universität/Master Psychologie/SS 2022/Masterarbeit/Experiment/subject-16.csv",0,0,0,"l",20,20,"l","l",2064.68470000004,2064.68470000004,16,NA,213050.6398,NA,181877.5145,NA,215115.9731,212742.6981,24204.7700000001,NA,NA,14723.2996,NA,NA,212749.982,212204.8127,NA,208812.5975,NA,181982.9031,15525.4514000001,46290.1845,60913.8432000001,73589.0575000001,90564.2945000001,98608.1051,181983.0199,215116.0448,NA,185932.2034,197285.1422,NA,NA,NA,211904.8282,NA,NA,NA,NA,NA,NA,NA,181877.337,181975.5096,NA,208812.5218,NA,NA,212199.4117,14723.477,213050.7274,14723.5006000001,212742.6181,181876.5649,NA,NA,15495.4784,NA,NA,106320.4461,16,548724.759899999,18,1,0,1,22,"Psychologie",5,3,3,3,3,3
84.2105263157895,96,28973.899668421,"a","accuracy","si2001fr","0","o","l","0","0","0",10,1,700,"Thu Apr 20 09:55:06 2023",1,"eher leicht","speed","Experiment.osexp","Bild_s3_o_8.png",1080,"fr",2001,"si","blaue","C:/Users/steff/Documents/Universität/Master Psychologie/SS 2022/Masterarbeit/Experiment/subject-16.csv",1,0,0,"l",10,10,"a","a",1779.33380000002,1779.33380000002,16,NA,216327.8542,NA,181877.5145,NA,218108.1294,216019.9714,24204.7700000001,NA,NA,14723.2996,NA,NA,216027.0585,215443.7133,NA,215524.0119,NA,181982.9031,15525.4514000001,46290.1845,60913.8432000001,73589.0575000001,90564.2945000001,98608.1051,181983.0199,218108.2038,NA,185932.2034,197285.1422,NA,NA,NA,215142.9667,NA,NA,NA,NA,NA,NA,NA,181877.337,181975.5096,NA,215523.9349,NA,NA,215438.3268,14723.477,216328.0432,14723.5006000001,216019.894,181876.5649,NA,NA,15495.4784,NA,NA,106320.4461,16,550504.0937,19,1,0,1,22,"Psychologie",5,3,3,3,3,3
80,96,27617.22996,"a","accuracy","si2001fr","0","o","l","0","0","0",11,1,700,"Thu Apr 20 09:55:06 2023",1,"eher leicht","speed","Experiment.osexp","Bild_s3_o_17.png",1080,"fr",2001,"si","blaue","C:/Users/steff/Documents/Universität/Master Psychologie/SS 2022/Masterarbeit/Experiment/subject-16.csv",1,0,0,"l",0,0,"a","a",1840.50550000009,1840.50550000009,16,NA,219322.7708,NA,181877.5145,NA,221164.1879,219014.8498,24204.7700000001,NA,NA,14723.2996,NA,NA,219021.7487,218449.9213,NA,215524.0119,NA,181982.9031,15525.4514000001,46290.1845,60913.8432000001,73589.0575000001,90564.2945000001,98608.1051,181983.0199,221164.263,NA,185932.2034,218148.2285,NA,NA,NA,215142.9667,NA,NA,NA,NA,NA,NA,NA,181877.337,181975.5096,NA,215523.9349,NA,NA,218444.4846,14723.477,219322.8629,14723.5006000001,219014.7714,181876.5649,NA,NA,15495.4784,NA,NA,106320.4461,16,552344.5992,20,1,0,1,22,"Psychologie",5,3,3,3,3,3
76.1904761904762,96,26452.6543333333,"a","accuracy","si2001fr","0","o","l","0","0","0",12,1,700,"Thu Apr 20 09:55:06 2023",2,"eher schwer","speed","Experiment.osexp","Bild_s2_o_5.png",1080,"fr",2001,"si","blaue","C:/Users/steff/Documents/Universität/Master Psychologie/SS 2022/Masterarbeit/Experiment/subject-16.csv",1,0,0,"l",-10,-10,"a","a",3161.14179999998,3161.14179999998,16,NA,222370.1452,NA,181877.5145,NA,225532.2229,222061.9133,24204.7700000001,NA,NA,14723.2996,NA,NA,222070.2099,221480.3966,NA,221560.1464,NA,181982.9031,15525.4514000001,46290.1845,60913.8432000001,73589.0575000001,90564.2945000001,98608.1051,181983.0199,225532.297,NA,185932.2034,221179.4676,NA,NA,NA,215142.9667,NA,NA,NA,NA,NA,NA,NA,181877.337,181975.5096,NA,221560.0715,NA,NA,221474.9204,14723.477,222370.225,14723.5006000001,222061.7738,181876.5649,NA,NA,15495.4784,NA,NA,106320.4461,16,555505.741,21,1,0,1,22,"Psychologie",5,3,3,3,3,3
77.2727272727273,96,25308.4488590909,"a","accuracy","si2001fr","1","b","a","1","0","0",13,1,700,"Thu Apr 20 09:55:06 2023",2,"eher schwer","speed","Experiment.osexp","Bild_s2_b_11.png",1080,"fr",2001,"si","blaue","C:/Users/steff/Documents/Universität/Master Psychologie/SS 2022/Masterarbeit/Experiment/subject-16.csv",0,0,0,"l",-5,-5,"a","a",1280.13389999999,1280.13389999999,16,NA,227675.0669,NA,181877.5145,NA,228956.0139,227367.3302,24204.7700000001,NA,NA,14723.2996,NA,NA,227374.4166,226849.0486,NA,221560.1464,NA,181982.9031,15525.4514000001,46290.1845,60913.8432000001,73589.0575000001,90564.2945000001,98608.1051,181983.0199,228956.0818,NA,185932.2034,225547.0848,NA,NA,NA,215142.9667,NA,NA,NA,NA,NA,NA,NA,181877.337,181975.5096,NA,221560.0715,NA,NA,226843.6659,14723.477,227675.255,14723.5006000001,227367.2543,181876.5649,NA,NA,15495.4784,225848.2169,NA,106320.4461,17,556785.8749,22,1,0,1,22,"Psychologie",5,3,3,3,3,3
78.2608695652174,96,24301.5804826087,"a","accuracy","si2001fr","1","o","l","1","0","0",14,1,700,"Thu Apr 20 09:55:06 2023",3,"sehr schwer","speed","Experiment.osexp","Bild_s1_o_3.png",1080,"fr",2001,"si","blaue","C:/Users/steff/Documents/Universität/Master Psychologie/SS 2022/Masterarbeit/Experiment/subject-16.csv",0,0,0,"l",0,0,"l","l",2150.47619999998,2150.47619999998,16,NA,230148.8181,NA,181877.5145,NA,232300.0404,229840.9792,24204.7700000001,NA,NA,14723.2996,NA,NA,229847.8258,229267.7272,NA,229342.3043,NA,181982.9031,15525.4514000001,46290.1845,60913.8432000001,73589.0575000001,90564.2945000001,98608.1051,181983.0199,232300.1148,NA,185932.2034,225547.0848,NA,NA,NA,228966.9946,NA,NA,NA,NA,NA,NA,NA,181877.337,181975.5096,NA,229342.2281,NA,NA,229262.2617,14723.477,230148.9204,14723.5006000001,229840.904,181876.5649,NA,NA,15495.4784,225848.2169,NA,106320.4461,18,558936.3511,23,1,0,1,22,"Psychologie",5,3,3,3,3,3
79.1666666666667,96,23364.700725,"a","accuracy","si2001fr","1","o","l","1","0","0",15,1,700,"Thu Apr 20 09:55:06 2023",3,"sehr schwer","speed","Experiment.osexp","Bild_s1_o_16.png",1080,"fr",2001,"si","blaue","C:/Users/steff/Documents/Universität/Master Psychologie/SS 2022/Masterarbeit/Experiment/subject-16.csv",0,0,0,"l",5,5,"l","l",1816.4663,1816.4663,16,NA,233474.741,NA,181877.5145,NA,235292.0512,233165.7916,24204.7700000001,NA,NA,14723.2996,NA,NA,233172.9204,232631.8443,NA,229342.3043,NA,181982.9031,15525.4514000001,46290.1845,60913.8432000001,73589.0575000001,90564.2945000001,98608.1051,181983.0199,235292.1232,NA,185932.2034,225547.0848,NA,NA,NA,232331.348,NA,NA,NA,NA,NA,NA,NA,181877.337,181975.5096,NA,229342.2281,NA,NA,232626.582,14723.477,233474.9209,14723.5006000001,233165.713,181876.5649,NA,NA,15495.4784,225848.2169,NA,106320.4461,19,560752.8174,24,1,0,1,22,"Psychologie",5,3,3,3,3,3
50,96,9948.00900000006,"a","speed","si2001fr","0","o","l","0","0","0",16,2,700,"Thu Apr 20 09:55:06 2023",3,"sehr schwer","speed","Experiment.osexp","Bild_s1_o_2.png",1080,"fr",2001,"si","blaue","C:/Users/steff/Documents/Universität/Master Psychologie/SS 2022/Masterarbeit/Experiment/subject-16.csv",0,0,1,"l",-5,-10,"a","a",1005.25160000008,1005.25160000008,16,NA,260637.9529,NA,181877.5145,240755.5263,261644.0154,260330.0641,24204.7700000001,NA,NA,14723.2996,NA,235760.0117,260337.1222,235607.4334,NA,259773.1695,NA,240880.5007,15525.4514000001,46290.1845,60913.8432000001,73589.0575000001,90564.2945000001,98608.1051,240880.6174,261644.1156,NA,259772.1657,225547.0848,NA,NA,NA,235307.2294,NA,NA,NA,NA,NA,NA,NA,181877.337,240873.5774,NA,259773.1233,NA,NA,235602.1477,14723.477,260638.0537,14723.5006000001,260329.8625,181876.5649,NA,NA,15495.4784,225848.2169,NA,106320.4461,1,19896.0180000001,2,1,5,1,22,"Psychologie",5,3,3,3,3,3
66.6666666666667,96,6802.16090000003,"a","speed","si2001fr","1","b","a","0","1","0",17,2,700,"Thu Apr 20 09:55:06 2023",3,"sehr schwer","speed","Experiment.osexp","Bild_s1_b_16.png",1080,"fr",2001,"si","blaue","C:/Users/steff/Documents/Universität/Master Psychologie/SS 2022/Masterarbeit/Experiment/subject-16.csv",0,0,0,"l",0,-5,"a","a",510.464699999953,510.464699999953,16,NA,262828.6712,NA,181877.5145,240755.5263,263339.7728,262520.8135,24204.7700000001,NA,NA,14723.2996,NA,235760.0117,262528.1227,261972.2457,NA,259773.1695,NA,240880.5007,15525.4514000001,46290.1845,60913.8432000001,73589.0575000001,90564.2945000001,98608.1051,240880.6174,263339.8508,NA,259772.1657,225547.0848,NA,261666.643,NA,235307.2294,NA,NA,NA,NA,NA,NA,NA,181877.337,240873.5774,NA,259773.1233,NA,NA,261966.8063,14723.477,262828.8557,14723.5006000001,262520.7297,181876.5649,NA,NA,15495.4784,225848.2169,NA,106320.4461,2,20406.4827000001,3,1,5,1,22,"Psychologie",5,3,3,3,3,3
75,96,5235.46542500002,"a","speed","si2001fr","1","b","a","0","1","0",18,2,700,"Thu Apr 20 09:55:06 2023",2,"eher schwer","speed","Experiment.osexp","Bild_s2_b_24.png",1080,"fr",2001,"si","blaue","C:/Users/steff/Documents/Universität/Master Psychologie/SS 2022/Masterarbeit/Experiment/subject-16.csv",0,0,0,"l",5,0,"a","a",535.379000000015,535.379000000015,16,NA,264547.7685,NA,181877.5145,240755.5263,265083.8723,264239.9672,24204.7700000001,NA,NA,14723.2996,NA,235760.0117,264246.9786,263660.9434,NA,263742.9412,NA,240880.5007,15525.4514000001,46290.1845,60913.8432000001,73589.0575000001,90564.2945000001,98608.1051,240880.6174,265083.951,NA,259772.1657,225547.0848,NA,261666.643,NA,235307.2294,263359.6396,NA,NA,NA,NA,NA,NA,181877.337,240873.5774,NA,263742.8532,NA,NA,263655.5025,14723.477,264547.9659,14723.5006000001,264239.8871,181876.5649,NA,NA,15495.4784,225848.2169,NA,106320.4461,3,20941.8617000001,4,1,5,1,22,"Psychologie",5,3,3,3,3,3
80,96,4274.54812000002,"a","speed","si2001fr","1","o","l","0","1","0",19,2,700,"Thu Apr 20 09:55:06 2023",2,"eher schwer","speed","Experiment.osexp","Bild_s2_o_22.png",1080,"fr",2001,"si","blaue","C:/Users/steff/Documents/Universität/Master Psychologie/SS 2022/Masterarbeit/Experiment/subject-16.csv",0,0,0,"l",10,5,"l","l",430.878900000011,430.878900000011,16,NA,266252.3639,NA,181877.5145,240755.5263,266683.7965,265943.749,24204.7700000001,NA,NA,14723.2996,NA,235760.0117,265951.1741,265399.6584,NA,263742.9412,NA,240880.5007,15525.4514000001,46290.1845,60913.8432000001,73589.0575000001,90564.2945000001,98608.1051,240880.6174,266683.8786,NA,259772.1657,225547.0848,NA,261666.643,NA,235307.2294,265098.9906,NA,NA,NA,NA,NA,NA,181877.337,240873.5774,NA,263742.8532,NA,NA,265394.2614,14723.477,266252.4534,14723.5006000001,265943.6672,181876.5649,NA,NA,15495.4784,225848.2169,NA,106320.4461,4,21372.7406000001,5,1,5,1,22,"Psychologie",5,3,3,3,3,3
83.3333333333333,96,3665.98578333335,"a","speed","si2001fr","1","o","l","0","1","0",20,2,700,"Thu Apr 20 09:55:06 2023",1,"eher leicht","speed","Experiment.osexp","Bild_s3_o_21.png",1080,"fr",2001,"si","blaue","C:/Users/steff/Documents/Universität/Master Psychologie/SS 2022/Masterarbeit/Experiment/subject-16.csv",0,0,0,"l",15,10,"l","l",623.174100000004,623.174100000004,16,NA,267884.0466,NA,181877.5145,240755.5263,268508.0473,267575.1267,24204.7700000001,NA,NA,14723.2996,NA,235760.0117,267582.0925,266999.8548,NA,267080.6681,NA,240880.5007,15525.4514000001,46290.1845,60913.8432000001,73589.0575000001,90564.2945000001,98608.1051,240880.6174,268508.1243,NA,259772.1657,225547.0848,NA,261666.643,NA,235307.2294,266699.1756,NA,NA,NA,NA,NA,NA,181877.337,240873.5774,NA,267080.5834,NA,NA,266994.3592,14723.477,267884.1422,14723.5006000001,267575.0469,181876.5649,NA,NA,15495.4784,225848.2169,NA,106320.4461,5,21995.9147000001,6,1,5,1,22,"Psychologie",5,3,3,3,3,3
85.7142857142857,96,3225.78455714288,"a","speed","si2001fr","1","b","a","0","1","0",21,2,700,"Thu Apr 20 09:55:06 2023",1,"eher leicht","speed","Experiment.osexp","Bild_s3_b_16.png",1080,"fr",2001,"si","blaue","C:/Users/steff/Documents/Universität/Master Psychologie/SS 2022/Masterarbeit/Experiment/subject-16.csv",0,0,0,"l",20,15,"a","a",584.577200000058,584.577200000058,16,NA,269698.9169,NA,181877.5145,240755.5263,270284.3126,269390.8673,24204.7700000001,NA,NA,14723.2996,NA,235760.0117,269397.8185,268827.1219,NA,267080.6681,NA,240880.5007,15525.4514000001,46290.1845,60913.8432000001,73589.0575000001,90564.2945000001,98608.1051,240880.6174,270284.3906,NA,259772.1657,225547.0848,NA,261666.643,NA,235307.2294,268519.8019,NA,NA,NA,NA,NA,NA,181877.337,240873.5774,NA,267080.5834,NA,NA,268821.8201,14723.477,269699.0029,14723.5006000001,269390.7893,181876.5649,NA,NA,15495.4784,225848.2169,NA,106320.4461,6,22580.4919000002,7,1,5,1,22,"Psychologie",5,3,3,3,3,3
87.5,96,2900.40126250002,"a","speed","si2001fr","1","b","a","0","1","0",22,2,700,"Thu Apr 20 09:55:06 2023",0,"sehr leicht","speed","Experiment.osexp","Bild_s4_b_7.png",1080,"fr",2001,"si","blaue","C:/Users/steff/Documents/Universität/Master Psychologie/SS 2022/Masterarbeit/Experiment/subject-16.csv",0,0,0,"l",25,20,"a","a",622.718200000003,622.718200000003,16,NA,271484.5225,NA,181877.5145,240755.5263,272107.7866,271176.3618,24204.7700000001,NA,NA,14723.2996,NA,235760.0117,271183.6028,270598.9856,NA,270679.2673,NA,240880.5007,15525.4514000001,46290.1845,60913.8432000001,73589.0575000001,90564.2945000001,98608.1051,240880.6174,272107.8623,NA,259772.1657,225547.0848,NA,261666.643,NA,235307.2294,270298.8388,NA,NA,NA,NA,NA,NA,181877.337,240873.5774,NA,270679.1932,NA,NA,270593.6175,14723.477,271484.6129,14723.5006000001,271176.284,181876.5649,NA,NA,15495.4784,225848.2169,NA,106320.4461,7,23203.2101000002,8,1,5,1,22,"Psychologie",5,3,3,3,3,3
88.8888888888889,96,2636.49216666669,"a","speed","si2001fr","1","b","a","0","1","0",23,2,700,"Thu Apr 20 09:55:06 2023",0,"sehr leicht","speed","Experiment.osexp","Bild_s4_b_4.png",1080,"fr",2001,"si","blaue","C:/Users/steff/Documents/Universität/Master Psychologie/SS 2022/Masterarbeit/Experiment/subject-16.csv",0,0,0,"l",30,25,"a","a",525.21940000006,525.21940000006,16,NA,273293.9099,NA,181877.5145,240755.5263,273819.766,272985.8355,24204.7700000001,NA,NA,14723.2996,NA,235760.0117,272993.0582,272436.8716,NA,270679.2673,NA,240880.5007,15525.4514000001,46290.1845,60913.8432000001,73589.0575000001,90564.2945000001,98608.1051,240880.6174,273819.84,NA,259772.1657,225547.0848,NA,261666.643,NA,235307.2294,272136.3595,NA,NA,NA,NA,NA,NA,181877.337,240873.5774,NA,270679.1932,NA,NA,272431.4177,14723.477,273294.1042,14723.5006000001,272985.7504,181876.5649,NA,NA,15495.4784,225848.2169,NA,106320.4461,8,23728.4295000002,9,1,5,1,22,"Psychologie",5,3,3,3,3,3
90,96,2415.43222000002,"a","speed","si2001fr","1","o","l","0","1","0",24,2,700,"Thu Apr 20 09:55:06 2023",0,"sehr leicht","speed","Experiment.osexp","Bild_s4_o_13.png",1080,"fr",2001,"si","blaue","C:/Users/steff/Documents/Universität/Master Psychologie/SS 2022/Masterarbeit/Experiment/subject-16.csv",0,0,0,"l",35,30,"l","l",425.892699999968,425.892699999968,16,NA,275041.3517,NA,181877.5145,240755.5263,275467.8896,274733.4124,24204.7700000001,NA,NA,14723.2996,NA,235760.0117,274740.738,274148.8383,NA,274231.0711,NA,240880.5007,15525.4514000001,46290.1845,60913.8432000001,73589.0575000001,90564.2945000001,98608.1051,240880.6174,275467.9639,NA,259772.1657,225547.0848,NA,261666.643,NA,235307.2294,273847.7089,NA,NA,NA,NA,NA,NA,181877.337,240873.5774,NA,274230.9827,NA,NA,274143.3842,14723.477,275041.4341,14723.5006000001,274733.3357,181876.5649,NA,NA,15495.4784,225848.2169,NA,106320.4461,9,24154.3222000002,10,1,5,1,22,"Psychologie",5,3,3,3,3,3
90.9090909090909,96,2248.39222727274,"a","speed","si2001fr","1","o","l","0","1","0",25,2,700,"Thu Apr 20 09:55:06 2023",0,"sehr leicht","speed","Experiment.osexp","Bild_s4_o_12.png",1080,"fr",2001,"si","blaue","C:/Users/steff/Documents/Universität/Master Psychologie/SS 2022/Masterarbeit/Experiment/subject-16.csv",0,0,0,"l",40,35,"l","l",577.992299999984,577.992299999984,16,NA,276633.1005,NA,181877.5145,240755.5263,277212.0029,276324.5592,24204.7700000001,NA,NA,14723.2996,NA,235760.0117,276331.6494,275783.0396,NA,274231.0711,NA,240880.5007,15525.4514000001,46290.1845,60913.8432000001,73589.0575000001,90564.2945000001,98608.1051,240880.6174,277212.0835,NA,259772.1657,225547.0848,NA,261666.643,NA,235307.2294,275482.3669,NA,NA,NA,NA,NA,NA,181877.337,240873.5774,NA,274230.9827,NA,NA,275777.6575,14723.477,276633.2946,14723.5006000001,276324.4803,181876.5649,NA,NA,15495.4784,225848.2169,NA,106320.4461,10,24732.3145000002,11,1,5,1,22,"Psychologie",5,3,3,3,3,3
91.6666666666667,96,2113.83481666668,"a","speed","si2001fr","1","o","l","0","1","0",26,2,700,"Thu Apr 20 09:55:06 2023",1,"eher leicht","speed","Experiment.osexp","Bild_s3_o_13.png",1080,"fr",2001,"si","blaue","C:/Users/steff/Documents/Universität/Master Psychologie/SS 2022/Masterarbeit/Experiment/subject-16.csv",0,0,0,"l",45,40,"l","l",633.703299999994,633.703299999994,16,NA,278417.5131,NA,181877.5145,240755.5263,279052.1237,278109.7146,24204.7700000001,NA,NA,14723.2996,NA,235760.0117,278116.804,277528.2333,NA,277602.7827,NA,240880.5007,15525.4514000001,46290.1845,60913.8432000001,73589.0575000001,90564.2945000001,98608.1051,240880.6174,279052.2043,NA,259772.1657,225547.0848,NA,261666.643,NA,235307.2294,277227.5045,NA,NA,NA,NA,NA,NA,181877.337,240873.5774,NA,277602.7021,NA,NA,277522.988,14723.477,278417.6021,14723.5006000001,278109.6295,181876.5649,NA,NA,15495.4784,225848.2169,NA,106320.4461,11,25366.0178000002,12,1,5,1,22,"Psychologie",5,3,3,3,3,3
92.3076923076923,96,1989.08897692308,"a","speed","si2001fr","1","o","l","0","1","0",27,2,700,"Thu Apr 20 09:55:06 2023",1,"eher leicht","speed","Experiment.osexp","Bild_s3_o_3.png",1080,"fr",2001,"si","blaue","C:/Users/steff/Documents/Universität/Master Psychologie/SS 2022/Masterarbeit/Experiment/subject-16.csv",0,0,0,"l",50,45,"l","l",492.138899999845,492.138899999845,16,NA,280239.0811,NA,181877.5145,240755.5263,280731.7814,279931.0736,24204.7700000001,NA,NA,14723.2996,NA,235760.0117,279938.5491,279377.2108,NA,277602.7827,NA,240880.5007,15525.4514000001,46290.1845,60913.8432000001,73589.0575000001,90564.2945000001,98608.1051,240880.6174,280731.8569,NA,259772.1657,225547.0848,NA,261666.643,NA,235307.2294,279075.3136,NA,NA,NA,NA,NA,NA,181877.337,240873.5774,NA,277602.7021,NA,NA,279371.7451,14723.477,280239.1613,14723.5006000001,279930.9889,181876.5649,NA,NA,15495.4784,225848.2169,NA,106320.4461,12,25858.1567,13,1,5,1,22,"Psychologie",5,3,3,3,3,3
92.8571428571429,96,1889.94692857143,"a","speed","si2001fr","1","b","a","0","1","0",28,2,700,"Thu Apr 20 09:55:06 2023",2,"eher schwer","speed","Experiment.osexp","Bild_s2_b_18.png",1080,"fr",2001,"si","blaue","C:/Users/steff/Documents/Universität/Master Psychologie/SS 2022/Masterarbeit/Experiment/subject-16.csv",0,0,0,"l",55,50,"a","a",601.100300000049,601.100300000049,16,NA,281954.0604,NA,181877.5145,240755.5263,282555.9131,281646.3271,24204.7700000001,NA,NA,14723.2996,NA,235760.0117,281653.2572,281051.246,NA,281132.3628,NA,240880.5007,15525.4514000001,46290.1845,60913.8432000001,73589.0575000001,90564.2945000001,98608.1051,240880.6174,282555.9888,NA,259772.1657,225547.0848,NA,261666.643,NA,235307.2294,280749.9118,NA,NA,NA,NA,NA,NA,181877.337,240873.5774,NA,281132.2782,NA,NA,281045.9589,14723.477,281954.2212,14723.5006000001,281646.2464,181876.5649,NA,NA,15495.4784,225848.2169,NA,106320.4461,13,26459.2570000001,14,1,5,1,22,"Psychologie",5,3,3,3,3,3
93.3333333333333,96,1801.12020000001,"a","speed","si2001fr","1","b","a","0","1","0",29,2,700,"Thu Apr 20 09:55:06 2023",2,"eher schwer","speed","Experiment.osexp","Bild_s2_b_25.png",1080,"fr",2001,"si","blaue","C:/Users/steff/Documents/Universität/Master Psychologie/SS 2022/Masterarbeit/Experiment/subject-16.csv",0,0,0,"l",60,55,"a","a",557.546000000031,557.546000000031,16,NA,283741.6375,NA,181877.5145,240755.5263,284300.0998,283433.7051,24204.7700000001,NA,NA,14723.2996,NA,235760.0117,283440.686,282890.8832,NA,281132.3628,NA,240880.5007,15525.4514000001,46290.1845,60913.8432000001,73589.0575000001,90564.2945000001,98608.1051,240880.6174,284300.1817,NA,259772.1657,225547.0848,NA,261666.643,NA,235307.2294,282587.9297,NA,NA,NA,NA,NA,NA,181877.337,240873.5774,NA,281132.2782,NA,NA,282883.0501,14723.477,283741.7688,14723.5006000001,283433.6226,181876.5649,NA,NA,15495.4784,225848.2169,NA,106320.4461,14,27016.8030000001,15,1,5,1,22,"Psychologie",5,3,3,3,3,3
93.75,96,1738.38635625,"a","speed","si2001fr","1","b","a","0","0","1",30,2,700,"Thu Apr 20 09:55:06 2023",3,"sehr schwer","speed","Experiment.osexp","Bild_s1_b_20.png",1080,"fr",2001,"si","blaue","C:/Users/steff/Documents/Universität/Master Psychologie/SS 2022/Masterarbeit/Experiment/subject-16.csv",0,0,0,"l",50,45,"a","a",797.378699999885,797.378699999885,16,NA,285517.8618,NA,181877.5145,240755.5263,286315.9558,285209.2555,24204.7700000001,NA,NA,14723.2996,NA,235760.0117,285216.2216,284624.7818,NA,284706.8676,NA,240880.5007,15525.4514000001,46290.1845,60913.8432000001,73589.0575000001,90564.2945000001,98608.1051,240880.6174,286316.0623,NA,259772.1657,225547.0848,NA,261666.643,NA,235307.2294,284324.0982,NA,NA,NA,NA,NA,NA,181877.337,240873.5774,NA,284706.7821,NA,NA,284619.3492,14723.477,285517.9518,14723.5006000001,285209.1711,181876.5649,NA,NA,15495.4784,225848.2169,NA,106320.4461,15,27814.1817,16,1,5,1,22,"Psychologie",5,3,3,3,3,3
88.2352941176471,96,1675.64104117647,"a","speed","si2001fr","0","b","a","0","0","0",31,2,700,"Thu Apr 20 09:55:06 2023",3,"sehr schwer","speed","Experiment.osexp","Bild_s1_b_18.png",1080,"fr",2001,"si","blaue","C:/Users/steff/Documents/Universität/Master Psychologie/SS 2022/Masterarbeit/Experiment/subject-16.csv",0,1,0,"l",40,35,"l","l",671.716000000015,671.716000000015,16,NA,287483.5682,NA,181877.5145,240755.5263,288155.8866,287175.3014,24204.7700000001,NA,NA,14723.2996,NA,235760.0117,287182.2647,286634.6736,NA,284706.8676,NA,240880.5007,15525.4514000001,46290.1845,60913.8432000001,73589.0575000001,90564.2945000001,98608.1051,240880.6174,288155.987,NA,259772.1657,225547.0848,286334.0992,261666.643,NA,235307.2294,284324.0982,NA,NA,NA,NA,NA,NA,181877.337,240873.5774,NA,284706.7821,NA,NA,286629.3048,14723.477,287483.6566,14723.5006000001,287175.1812,181876.5649,NA,NA,15495.4784,225848.2169,NA,106320.4461,15,28485.8977,17,1,5,1,22,"Psychologie",5,3,3,3,3,3
100,96,27811.5112666667,"a","speed","si2001fr","1","b","a","0","0","1",32,3,700,"Thu Apr 20 09:55:06 2023",1,"eher leicht","speed","Experiment.osexp","Bild_s3_b_5.png",1080,"fr",2001,"si","blaue","C:/Users/steff/Documents/Universität/Master Psychologie/SS 2022/Masterarbeit/Experiment/subject-16.csv",0,0,0,"l",-10,-10,"a","a",731.566400000011,731.566400000011,16,NA,324575.5929,317841.2533,181877.5145,293612.5575,325307.9999,324267.7394,24204.7700000001,293687.7779,NA,14723.2996,NA,288617.1935,324274.7928,288471.2886,323740.8769,284706.8676,317942.6967,240880.5007,15525.4514000001,46290.1845,60913.8432000001,73589.0575000001,90564.2945000001,98608.1051,317942.9553,325308.0981,323740.0343,259772.1657,225547.0848,286334.0992,261666.643,288170.4902,235307.2294,284324.0982,NA,NA,NA,NA,NA,317935.4748,181877.337,240873.5774,323740.8318,284706.7821,317841.1883,317788.1714,288465.9007,14723.477,324575.6822,14723.5006000001,324267.54,181876.5649,293683.2265,293647.0384,15495.4784,225848.2169,NA,106320.4461,3,83434.5338000001,3,0,40,1,22,"Psychologie",5,3,3,3,3,3
100,96,21005.320425,"a","speed","si2001fr","1","b","a","0","1","0",33,3,700,"Thu Apr 20 09:55:06 2023",1,"eher leicht","speed","Experiment.osexp","Bild_s3_b_20.png",1080,"fr",2001,"si","blaue","C:/Users/steff/Documents/Universität/Master Psychologie/SS 2022/Masterarbeit/Experiment/subject-16.csv",0,0,0,"l",-5,-5,"a","a",586.7478999999,586.7478999999,16,NA,326480.4155,317841.2533,181877.5145,293612.5575,327067.8116,326172.5508,24204.7700000001,293687.7779,NA,14723.2996,NA,288617.1935,326179.5647,325623.6644,323740.8769,284706.8676,317942.6967,240880.5007,15525.4514000001,46290.1845,60913.8432000001,73589.0575000001,90564.2945000001,98608.1051,317942.9553,327067.8924,323740.0343,259772.1657,225547.0848,325322.9366,261666.643,288170.4902,235307.2294,284324.0982,NA,NA,NA,NA,NA,317935.4748,181877.337,240873.5774,323740.8318,284706.7821,317841.1883,317788.1714,325618.3314,14723.477,326480.4975,14723.5006000001,326172.4734,181876.5649,293683.2265,293647.0384,15495.4784,225848.2169,NA,106320.4461,4,84021.2817,4,0,40,1,22,"Psychologie",5,3,3,3,3,3
100,96,16921.68366,"a","speed","si2001fr","1","o","l","0","1","0",34,3,700,"Thu Apr 20 09:55:06 2023",1,"eher leicht","speed","Experiment.osexp","Bild_s3_o_10.png",1080,"fr",2001,"si","blaue","C:/Users/steff/Documents/Universität/Master Psychologie/SS 2022/Masterarbeit/Experiment/subject-16.csv",0,0,0,"l",0,0,"l","l",587.136600000085,587.136600000085,16,NA,328223.9233,317841.2533,181877.5145,293612.5575,328811.8734,327915.8178,24204.7700000001,293687.7779,NA,14723.2996,NA,288617.1935,327923.0746,327379.389,323740.8769,284706.8676,317942.6967,240880.5007,15525.4514000001,46290.1845,60913.8432000001,73589.0575000001,90564.2945000001,98608.1051,317942.9553,328811.9482,323740.0343,259772.1657,225547.0848,325322.9366,261666.643,288170.4902,235307.2294,327078.6152,NA,NA,NA,NA,NA,317935.4748,181877.337,240873.5774,323740.8318,284706.7821,317841.1883,317788.1714,327374.0857,14723.477,328224.1019,14723.5006000001,327915.7372,181876.5649,293683.2265,293647.0384,15495.4784,225848.2169,NA,106320.4461,5,84608.4183,5,0,40,1,22,"Psychologie",5,3,3,3,3,3
100,96,14188.8987,"a","speed","si2001fr","1","b","a","0","1","0",35,3,700,"Thu Apr 20 09:55:06 2023",1,"eher leicht","speed","Experiment.osexp","Bild_s3_b_6.png",1080,"fr",2001,"si","blaue","C:/Users/steff/Documents/Universität/Master Psychologie/SS 2022/Masterarbeit/Experiment/subject-16.csv",0,0,0,"l",5,5,"a","a",524.973900000041,524.973900000041,16,NA,329998.1933,317841.2533,181877.5145,293612.5575,330523.7483,329690.2735,24204.7700000001,293687.7779,NA,14723.2996,NA,288617.1935,329697.2564,329127.1588,323740.8769,284706.8676,317942.6967,240880.5007,15525.4514000001,46290.1845,60913.8432000001,73589.0575000001,90564.2945000001,98608.1051,317942.9553,330523.8274,323740.0343,259772.1657,225547.0848,325322.9366,261666.643,288170.4902,235307.2294,328826.3206,NA,NA,NA,NA,NA,317935.4748,181877.337,240873.5774,323740.8318,284706.7821,317841.1883,317788.1714,329121.8226,14723.477,329998.2809,14723.5006000001,329690.1954,181876.5649,293683.2265,293647.0384,15495.4784,225848.2169,NA,106320.4461,6,85133.3922000001,6,0,40,1,22,"Psychologie",5,3,3,3,3,3
100,96,12233.1241571429,"a","speed","si2001fr","1","o","l","0","1","0",36,3,700,"Thu Apr 20 09:55:06 2023",1,"eher leicht","speed","Experiment.osexp","Bild_s3_o_9.png",1080,"fr",2001,"si","blaue","C:/Users/steff/Documents/Universität/Master Psychologie/SS 2022/Masterarbeit/Experiment/subject-16.csv",0,0,0,"l",10,10,"l","l",498.476900000009,498.476900000009,16,NA,331688.72,317841.2533,181877.5145,293612.5575,332187.9165,331380.6204,24204.7700000001,293687.7779,NA,14723.2996,NA,288617.1935,331387.3906,330838.7275,323740.8769,284706.8676,317942.6967,240880.5007,15525.4514000001,46290.1845,60913.8432000001,73589.0575000001,90564.2945000001,98608.1051,317942.9553,332187.9934,323740.0343,259772.1657,225547.0848,325322.9366,261666.643,288170.4902,235307.2294,330538.4119,NA,NA,NA,NA,NA,317935.4748,181877.337,240873.5774,323740.8318,284706.7821,317841.1883,317788.1714,330833.31,14723.477,331688.8039,14723.5006000001,331380.5385,181876.5649,293683.2265,293647.0384,15495.4784,225848.2169,NA,106320.4461,7,85631.8691000001,7,0,40,1,22,"Psychologie",5,3,3,3,3,3
100,96,10765.68695,"a","speed","si2001fr","1","b","a","0","1","0",37,3,700,"Thu Apr 20 09:55:06 2023",1,"eher leicht","speed","Experiment.osexp","Bild_s3_b_10.png",1080,"fr",2001,"si","blaue","C:/Users/steff/Documents/Universität/Master Psychologie/SS 2022/Masterarbeit/Experiment/subject-16.csv",0,0,0,"l",15,15,"a","a",493.626500000129,493.626500000129,16,NA,333389.5074,317841.2533,181877.5145,293612.5575,333883.8674,333078.5632,24204.7700000001,293687.7779,NA,14723.2996,NA,288617.1935,333088.3646,332518.3139,323740.8769,284706.8676,317942.6967,240880.5007,15525.4514000001,46290.1845,60913.8432000001,73589.0575000001,90564.2945000001,98608.1051,317942.9553,333883.9445,323740.0343,259772.1657,225547.0848,325322.9366,261666.643,288170.4902,235307.2294,332216.8284,NA,NA,NA,NA,NA,317935.4748,181877.337,240873.5774,323740.8318,284706.7821,317841.1883,317788.1714,332512.9626,14723.477,333389.595,14723.5006000001,333078.4849,181876.5649,293683.2265,293647.0384,15495.4784,225848.2169,NA,106320.4461,8,86125.4956000002,8,0,40,1,22,"Psychologie",5,3,3,3,3,3
100,96,9627.14496666669,"a","speed","si2001fr","1","o","l","0","1","0",38,3,700,"Thu Apr 20 09:55:06 2023",1,"eher leicht","speed","Experiment.osexp","Bild_s3_o_17.png",1080,"fr",2001,"si","blaue","C:/Users/steff/Documents/Universität/Master Psychologie/SS 2022/Masterarbeit/Experiment/subject-16.csv",0,0,0,"l",20,20,"l","l",518.809100000013,518.809100000013,16,NA,335060.3059,317841.2533,181877.5145,293612.5575,335579.8659,334752.1977,24204.7700000001,293687.7779,NA,14723.2996,NA,288617.1935,334759.2409,334201.2356,323740.8769,284706.8676,317942.6967,240880.5007,15525.4514000001,46290.1845,60913.8432000001,73589.0575000001,90564.2945000001,98608.1051,317942.9553,335579.9467,323740.0343,259772.1657,225547.0848,325322.9366,261666.643,288170.4902,235307.2294,333900.6934,NA,NA,NA,NA,NA,317935.4748,181877.337,240873.5774,323740.8318,284706.7821,317841.1883,317788.1714,334195.8136,14723.477,335060.3927,14723.5006000001,334752.1123,181876.5649,293683.2265,293647.0384,15495.4784,225848.2169,NA,106320.4461,9,86644.3047000002,9,0,40,1,22,"Psychologie",5,3,3,3,3,3
100,96,8720.25901000004,"a","speed","si2001fr","1","o","l","0","1","0",39,3,700,"Thu Apr 20 09:55:06 2023",1,"eher leicht","speed","Experiment.osexp","Bild_s3_o_11.png",1080,"fr",2001,"si","blaue","C:/Users/steff/Documents/Universität/Master Psychologie/SS 2022/Masterarbeit/Experiment/subject-16.csv",0,0,0,"l",25,25,"l","l",558.285400000168,558.285400000168,16,NA,336748.7545,317841.2533,181877.5145,293612.5575,337307.8225,336440.4147,24204.7700000001,293687.7779,NA,14723.2996,NA,288617.1935,336447.5614,335896.2996,323740.8769,284706.8676,317942.6967,240880.5007,15525.4514000001,46290.1845,60913.8432000001,73589.0575000001,90564.2945000001,98608.1051,317942.9553,337307.8973,323740.0343,259772.1657,225547.0848,325322.9366,261666.643,288170.4902,235307.2294,335595.3819,NA,NA,NA,NA,NA,317935.4748,181877.337,240873.5774,323740.8318,284706.7821,317841.1883,317788.1714,335890.8509,14723.477,336748.933,14723.5006000001,336440.3361,181876.5649,293683.2265,293647.0384,15495.4784,225848.2169,NA,106320.4461,10,87202.5901000004,10,0,40,1,22,"Psychologie",5,3,3,3,3,3
100,96,7967.66746363639,"a","speed","si2001fr","1","b","a","0","1","0",40,3,700,"Thu Apr 20 09:55:06 2023",2,"eher schwer","speed","Experiment.osexp","Bild_s2_b_15.png",1080,"fr",2001,"si","blaue","C:/Users/steff/Documents/Universität/Master Psychologie/SS 2022/Masterarbeit/Experiment/subject-16.csv",0,0,0,"l",30,30,"a","a",441.75199999992,441.75199999992,16,NA,338513.4136,317841.2533,181877.5145,293612.5575,338956.2806,338203.3918,24204.7700000001,293687.7779,NA,14723.2996,NA,288617.1935,338210.7745,337623.2174,337705.3318,284706.8676,317942.6967,240880.5007,15525.4514000001,46290.1845,60913.8432000001,73589.0575000001,90564.2945000001,98608.1051,317942.9553,338956.3559,323740.0343,259772.1657,225547.0848,325322.9366,261666.643,288170.4902,235307.2294,337322.5859,NA,NA,NA,NA,NA,317935.4748,181877.337,240873.5774,337705.2463,284706.7821,317841.1883,317788.1714,337617.7848,14723.477,338513.501,14723.5006000001,338203.311,181876.5649,293683.2265,293647.0384,15495.4784,225848.2169,NA,106320.4461,11,87644.3421000003,11,0,40,1,22,"Psychologie",5,3,3,3,3,3
91.6666666666667,96,7360.5841166667,"a","speed","si2001fr","0","b","a","0","0","0",41,3,700,"Thu Apr 20 09:55:06 2023",2,"eher schwer","speed","Experiment.osexp","Bild_s2_b_3.png",1080,"fr",2001,"si","blaue","C:/Users/steff/Documents/Universität/Master Psychologie/SS 2022/Masterarbeit/Experiment/subject-16.csv",0,1,0,"l",20,20,"l","l",682.667300000088,682.667300000088,16,NA,340144.3215,317841.2533,181877.5145,293612.5575,340828.0631,339836.1736,24204.7700000001,293687.7779,NA,14723.2996,NA,288617.1935,339843.6141,339287.1467,337705.3318,284706.8676,317942.6967,240880.5007,15525.4514000001,46290.1845,60913.8432000001,73589.0575000001,90564.2945000001,98608.1051,317942.9553,340828.1686,323740.0343,259772.1657,225547.0848,325322.9366,261666.643,288170.4902,235307.2294,338986.0366,NA,NA,NA,NA,NA,317935.4748,181877.337,240873.5774,337705.2463,284706.7821,317841.1883,317788.1714,339281.8311,14723.477,340144.5183,14723.5006000001,339836.0922,181876.5649,293683.2265,293647.0384,15495.4784,225848.2169,NA,106320.4461,11,88327.0094000004,12,0,40,1,22,"Psychologie",5,3,3,3,3,3
92.3076923076923,96,6844.26400769233,"a","speed","si2001fr","1","b","a","0","1","0",42,3,700,"Thu Apr 20 09:55:06 2023",2,"eher schwer","speed","Experiment.osexp","Bild_s2_b_6.png",1080,"fr",2001,"si","blaue","C:/Users/steff/Documents/Universität/Master Psychologie/SS 2022/Masterarbeit/Experiment/subject-16.csv",0,0,0,"l",25,25,"a","a",648.422699999879,648.422699999879,16,NA,342002.5434,317841.2533,181877.5145,293612.5575,342651.9714,341694.7995,24204.7700000001,293687.7779,NA,14723.2996,NA,288617.1935,341701.6938,341159.056,337705.3318,284706.8676,317942.6967,240880.5007,15525.4514000001,46290.1845,60913.8432000001,73589.0575000001,90564.2945000001,98608.1051,317942.9553,342652.0531,323740.0343,259772.1657,225547.0848,325322.9366,261666.643,340857.522,235307.2294,338986.0366,NA,NA,NA,NA,NA,317935.4748,181877.337,240873.5774,337705.2463,284706.7821,317841.1883,317788.1714,341152.8622,14723.477,342002.7628,14723.5006000001,341694.7135,181876.5649,293683.2265,293647.0384,15495.4784,225848.2169,NA,106320.4461,12,88975.4321000003,13,0,40,1,22,"Psychologie",5,3,3,3,3,3
92.8571428571429,96,6403.76497142861,"a","speed","si2001fr","1","o","l","0","1","0",43,3,700,"Thu Apr 20 09:55:06 2023",2,"eher schwer","speed","Experiment.osexp","Bild_s2_o_22.png",1080,"fr",2001,"si","blaue","C:/Users/steff/Documents/Universität/Master Psychologie/SS 2022/Masterarbeit/Experiment/subject-16.csv",0,0,0,"l",30,30,"l","l",677.2775000002,677.2775000002,16,NA,343829.7123,317841.2533,181877.5145,293612.5575,344507.9584,343521.3698,24204.7700000001,293687.7779,NA,14723.2996,NA,288617.1935,343528.5391,342976.688,337705.3318,284706.8676,317942.6967,240880.5007,15525.4514000001,46290.1845,60913.8432000001,73589.0575000001,90564.2945000001,98608.1051,317942.9553,344508.0424,323740.0343,259772.1657,225547.0848,325322.9366,261666.643,340857.522,235307.2294,342675.4308,NA,NA,NA,NA,NA,317935.4748,181877.337,240873.5774,337705.2463,284706.7821,317841.1883,317788.1714,342971.2267,14723.477,343829.9053,14723.5006000001,343521.2908,181876.5649,293683.2265,293647.0384,15495.4784,225848.2169,NA,106320.4461,13,89652.7096000005,14,0,40,1,22,"Psychologie",5,3,3,3,3,3
93.3333333333333,96,6011.72726000003,"a","speed","si2001fr","1","o","l","0","1","0",44,3,700,"Thu Apr 20 09:55:06 2023",2,"eher schwer","speed","Experiment.osexp","Bild_s2_o_24.png",1080,"fr",2001,"si","blaue","C:/Users/steff/Documents/Universität/Master Psychologie/SS 2022/Masterarbeit/Experiment/subject-16.csv",0,0,0,"l",35,35,"l","l",523.199299999978,523.199299999978,16,NA,345679.8505,317841.2533,181877.5145,293612.5575,346203.745,345370.8836,24204.7700000001,293687.7779,NA,14723.2996,NA,288617.1935,345377.8398,344832.9891,337705.3318,284706.8676,317942.6967,240880.5007,15525.4514000001,46290.1845,60913.8432000001,73589.0575000001,90564.2945000001,98608.1051,317942.9553,346203.8269,323740.0343,259772.1657,225547.0848,325322.9366,261666.643,340857.522,235307.2294,344531.5643,NA,NA,NA,NA,NA,317935.4748,181877.337,240873.5774,337705.2463,284706.7821,317841.1883,317788.1714,344827.5008,14723.477,345680.0137,14723.5006000001,345370.8049,181876.5649,293683.2265,293647.0384,15495.4784,225848.2169,NA,106320.4461,14,90175.9089000005,15,0,40,1,22,"Psychologie",5,3,3,3,3,3
93.75,96,5669.33801250002,"a","speed","si2001fr","1","b","a","0","1","0",45,3,700,"Thu Apr 20 09:55:06 2023",2,"eher schwer","speed","Experiment.osexp","Bild_s2_b_19.png",1080,"fr",2001,"si","blaue","C:/Users/steff/Documents/Universität/Master Psychologie/SS 2022/Masterarbeit/Experiment/subject-16.csv",0,0,0,"l",40,40,"a","a",533.499299999909,533.499299999909,16,NA,347381.5863,317841.2533,181877.5145,293612.5575,347915.8291,347072.9878,24204.7700000001,293687.7779,NA,14723.2996,NA,288617.1935,347080.8219,346533.2214,337705.3318,284706.8676,317942.6967,240880.5007,15525.4514000001,46290.1845,60913.8432000001,73589.0575000001,90564.2945000001,98608.1051,317942.9553,347915.9042,323740.0343,259772.1657,225547.0848,325322.9366,261666.643,340857.522,235307.2294,346231.9117,NA,NA,NA,NA,NA,317935.4748,181877.337,240873.5774,337705.2463,284706.7821,317841.1883,317788.1714,346527.8049,14723.477,347381.6857,14723.5006000001,347072.906,181876.5649,293683.2265,293647.0384,15495.4784,225848.2169,NA,106320.4461,15,90709.4082000004,16,0,40,1,22,"Psychologie",5,3,3,3,3,3
94.1176470588235,96,5365.92041764708,"a","speed","si2001fr","1","o","l","0","1","0",46,3,700,"Thu Apr 20 09:55:06 2023",2,"eher schwer","speed","Experiment.osexp","Bild_s2_o_25.png",1080,"fr",2001,"si","blaue","C:/Users/steff/Documents/Universität/Master Psychologie/SS 2022/Masterarbeit/Experiment/subject-16.csv",0,0,0,"l",45,45,"l","l",511.238900000055,511.238900000055,16,NA,349099.8559,317841.2533,181877.5145,293612.5575,349611.7571,348791.6312,24204.7700000001,293687.7779,NA,14723.2996,NA,288617.1935,348798.6817,348243.7364,337705.3318,284706.8676,317942.6967,240880.5007,15525.4514000001,46290.1845,60913.8432000001,73589.0575000001,90564.2945000001,98608.1051,317942.9553,349611.8321,323740.0343,259772.1657,225547.0848,325322.9366,261666.643,340857.522,235307.2294,347942.8218,NA,NA,NA,NA,NA,317935.4748,181877.337,240873.5774,337705.2463,284706.7821,317841.1883,317788.1714,348238.077,14723.477,349099.9794,14723.5006000001,348791.5493,181876.5649,293683.2265,293647.0384,15495.4784,225848.2169,NA,106320.4461,16,91220.6471000004,17,0,40,1,22,"Psychologie",5,3,3,3,3,3
94.4444444444444,96,5100.48998888892,"a","speed","si2001fr","1","o","l","0","1","0",47,3,700,"Thu Apr 20 09:55:06 2023",2,"eher schwer","speed","Experiment.osexp","Bild_s2_o_7.png",1080,"fr",2001,"si","blaue","C:/Users/steff/Documents/Universität/Master Psychologie/SS 2022/Masterarbeit/Experiment/subject-16.csv",0,0,0,"l",50,50,"l","l",588.172700000112,588.172700000112,16,NA,350798.8409,317841.2533,181877.5145,293612.5575,351387.8554,350489.7692,24204.7700000001,293687.7779,NA,14723.2996,NA,288617.1935,350497.046,349937.8228,337705.3318,284706.8676,317942.6967,240880.5007,15525.4514000001,46290.1845,60913.8432000001,73589.0575000001,90564.2945000001,98608.1051,317942.9553,351387.9347,323740.0343,259772.1657,225547.0848,325322.9366,261666.643,340857.522,235307.2294,349630.7739,NA,NA,NA,NA,NA,317935.4748,181877.337,240873.5774,337705.2463,284706.7821,317841.1883,317788.1714,349932.2354,14723.477,350799.0302,14723.5006000001,350489.6861,181876.5649,293683.2265,293647.0384,15495.4784,225848.2169,NA,106320.4461,17,91808.8198000006,18,0,40,1,22,"Psychologie",5,3,3,3,3,3
94.7368421052632,96,4856.92890000002,"a","speed","si2001fr","1","b","a","0","1","0",48,3,700,"Thu Apr 20 09:55:06 2023",3,"sehr schwer","speed","Experiment.osexp","Bild_s1_b_14.png",1080,"fr",2001,"si","blaue","C:/Users/steff/Documents/Universität/Master Psychologie/SS 2022/Masterarbeit/Experiment/subject-16.csv",0,0,0,"l",55,55,"a","a",472.829299999808,472.829299999808,16,NA,352594.197,317841.2533,181877.5145,293612.5575,353067.9234,352285.0714,24204.7700000001,293687.7779,NA,14723.2996,NA,288617.1935,352293.3925,351716.8702,351790.6022,284706.8676,317942.6967,240880.5007,15525.4514000001,46290.1845,60913.8432000001,73589.0575000001,90564.2945000001,98608.1051,317942.9553,353067.9988,323740.0343,259772.1657,225547.0848,325322.9366,261666.643,340857.522,235307.2294,351416.2457,NA,NA,NA,NA,NA,317935.4748,181877.337,240873.5774,351790.5288,284706.7821,317841.1883,317788.1714,351711.4927,14723.477,352594.3717,14723.5006000001,352284.863,181876.5649,293683.2265,293647.0384,15495.4784,225848.2169,NA,106320.4461,18,92281.6491000004,19,0,40,1,22,"Psychologie",5,3,3,3,3,3
95,96,4641.17095000002,"a","speed","si2001fr","1","o","l","0","1","0",49,3,700,"Thu Apr 20 09:55:06 2023",3,"sehr schwer","speed","Experiment.osexp","Bild_s1_o_17.png",1080,"fr",2001,"si","blaue","C:/Users/steff/Documents/Universität/Master Psychologie/SS 2022/Masterarbeit/Experiment/subject-16.csv",0,0,0,"l",60,60,"l","l",541.769900000014,541.769900000014,16,NA,354269.3448,317841.2533,181877.5145,293612.5575,354811.861,353961.2951,24204.7700000001,293687.7779,NA,14723.2996,NA,288617.1935,353968.2787,353398.4903,351790.6022,284706.8676,317942.6967,240880.5007,15525.4514000001,46290.1845,60913.8432000001,73589.0575000001,90564.2945000001,98608.1051,317942.9553,354811.9407,323740.0343,259772.1657,225547.0848,325322.9366,261666.643,340857.522,235307.2294,353096.9927,NA,NA,NA,NA,NA,317935.4748,181877.337,240873.5774,351790.5288,284706.7821,317841.1883,317788.1714,353393.1772,14723.477,354269.4355,14723.5006000001,353961.2152,181876.5649,293683.2265,293647.0384,15495.4784,225848.2169,NA,106320.4461,19,92823.4190000004,20,0,40,1,22,"Psychologie",5,3,3,3,3,3
90.4761904761905,96,4448.95526190477,"a","speed","si2001fr","0","b","a","0","0","0",50,3,700,"Thu Apr 20 09:55:06 2023",3,"sehr schwer","speed","Experiment.osexp","Bild_s1_b_1.png",1080,"fr",2001,"si","blaue","C:/Users/steff/Documents/Universität/Master Psychologie/SS 2022/Masterarbeit/Experiment/subject-16.csv",0,1,0,"l",50,50,"l","l",604.641499999852,604.641499999852,16,NA,356014.4131,317841.2533,181877.5145,293612.5575,356620.012,355704.0056,24204.7700000001,293687.7779,NA,14723.2996,NA,288617.1935,355713.6828,355132.5413,351790.6022,284706.8676,317942.6967,240880.5007,15525.4514000001,46290.1845,60913.8432000001,73589.0575000001,90564.2945000001,98608.1051,317942.9553,356620.1192,323740.0343,259772.1657,225547.0848,325322.9366,261666.643,340857.522,235307.2294,354826.8073,NA,NA,NA,NA,NA,317935.4748,181877.337,240873.5774,351790.5288,284706.7821,317841.1883,317788.1714,355127.0789,14723.477,356014.5304,14723.5006000001,355703.8699,181876.5649,293683.2265,293647.0384,15495.4784,225848.2169,NA,106320.4461,19,93428.0605000002,21,0,40,1,22,"Psychologie",5,3,3,3,3,3
90.9090909090909,96,4266.22129545456,"a","speed","si2001fr","1","b","a","0","1","0",51,3,700,"Thu Apr 20 09:55:06 2023",3,"sehr schwer","speed","Experiment.osexp","Bild_s1_b_19.png",1080,"fr",2001,"si","blaue","C:/Users/steff/Documents/Universität/Master Psychologie/SS 2022/Masterarbeit/Experiment/subject-16.csv",0,0,0,"l",55,55,"a","a",428.808000000136,428.808000000136,16,NA,357790.2669,317841.2533,181877.5145,293612.5575,358219.9739,357482.3771,24204.7700000001,293687.7779,NA,14723.2996,NA,288617.1935,357489.6012,356935.882,351790.6022,284706.8676,317942.6967,240880.5007,15525.4514000001,46290.1845,60913.8432000001,73589.0575000001,90564.2945000001,98608.1051,317942.9553,358220.0573,323740.0343,259772.1657,225547.0848,325322.9366,261666.643,356635.184,235307.2294,354826.8073,NA,NA,NA,NA,NA,317935.4748,181877.337,240873.5774,351790.5288,284706.7821,317841.1883,317788.1714,356930.428,14723.477,357790.3515,14723.5006000001,357482.3004,181876.5649,293683.2265,293647.0384,15495.4784,225848.2169,NA,106320.4461,20,93856.8685000004,22,0,40,1,22,"Psychologie",5,3,3,3,3,3
86.9565217391304,96,4107.13531739131,"a","speed","si2001fr","0","b","a","0","0","0",52,3,700,"Thu Apr 20 09:55:06 2023",3,"sehr schwer","speed","Experiment.osexp","Bild_s1_b_20.png",1080,"fr",2001,"si","blaue","C:/Users/steff/Documents/Universität/Master Psychologie/SS 2022/Masterarbeit/Experiment/subject-16.csv",0,1,0,"l",45,45,"l","l",607.24379999988,607.24379999988,16,NA,359403.8629,317841.2533,181877.5145,293612.5575,360011.8313,359095.1535,24204.7700000001,293687.7779,NA,14723.2996,NA,288617.1935,359102.397,358535.0423,351790.6022,284706.8676,317942.6967,240880.5007,15525.4514000001,46290.1845,60913.8432000001,73589.0575000001,90564.2945000001,98608.1051,317942.9553,360011.9268,323740.0343,259772.1657,225547.0848,325322.9366,261666.643,356635.184,235307.2294,358234.5682,NA,NA,NA,NA,NA,317935.4748,181877.337,240873.5774,351790.5288,284706.7821,317841.1883,317788.1714,358529.6375,14723.477,359403.9513,14723.5006000001,359095.0697,181876.5649,293683.2265,293647.0384,15495.4784,225848.2169,NA,106320.4461,20,94464.1123000002,23,0,40,1,22,"Psychologie",5,3,3,3,3,3
83.3333333333333,96,3961.98714166667,"a","speed","si2001fr","0","o","l","0","0","0",53,3,700,"Thu Apr 20 09:55:06 2023",3,"sehr schwer","speed","Experiment.osexp","Bild_s1_o_14.png",1080,"fr",2001,"si","blaue","C:/Users/steff/Documents/Universität/Master Psychologie/SS 2022/Masterarbeit/Experiment/subject-16.csv",0,1,0,"l",35,35,"a","a",623.579099999915,623.579099999915,16,NA,361195.5323,317841.2533,181877.5145,293612.5575,361819.9523,360887.5029,24204.7700000001,293687.7779,NA,14723.2996,NA,288617.1935,360894.4153,360326.0946,351790.6022,284706.8676,317942.6967,240880.5007,15525.4514000001,46290.1845,60913.8432000001,73589.0575000001,90564.2945000001,98608.1051,317942.9553,361820.0516,323740.0343,259772.1657,225547.0848,325322.9366,261666.643,360025.5229,235307.2294,358234.5682,NA,NA,NA,NA,NA,317935.4748,181877.337,240873.5774,351790.5288,284706.7821,317841.1883,317788.1714,360320.7431,14723.477,361195.6175,14723.5006000001,360887.4224,181876.5649,293683.2265,293647.0384,15495.4784,225848.2169,NA,106320.4461,20,95087.6914000002,24,0,40,1,22,"Psychologie",5,3,3,3,3,3
84,96,3829.425376,"a","speed","si2001fr","1","o","l","0","1","0",54,3,700,"Thu Apr 20 09:55:06 2023",3,"sehr schwer","speed","Experiment.osexp","Bild_s1_o_4.png",1080,"fr",2001,"si","blaue","C:/Users/steff/Documents/Universität/Master Psychologie/SS 2022/Masterarbeit/Experiment/subject-16.csv",0,0,0,"l",40,40,"l","l",647.942999999912,647.942999999912,16,NA,362995.1594,317841.2533,181877.5145,293612.5575,363643.8668,362686.519,24204.7700000001,293687.7779,NA,14723.2996,NA,288617.1935,362694.0015,362143.6701,351790.6022,284706.8676,317942.6967,240880.5007,15525.4514000001,46290.1845,60913.8432000001,73589.0575000001,90564.2945000001,98608.1051,317942.9553,363643.9439,323740.0343,259772.1657,225547.0848,325322.9366,261666.643,361843.1501,235307.2294,358234.5682,NA,NA,NA,NA,NA,317935.4748,181877.337,240873.5774,351790.5288,284706.7821,317841.1883,317788.1714,362138.2944,14723.477,362995.2432,14723.5006000001,362686.4396,181876.5649,293683.2265,293647.0384,15495.4784,225848.2169,NA,106320.4461,21,95735.6344000001,25,0,40,1,22,"Psychologie",5,3,3,3,3,3
80.7692307692308,96,3702.83945384615,"a","speed","si2001fr","0","b","a","0","0","0",55,3,700,"Thu Apr 20 09:55:06 2023",3,"sehr schwer","speed","Experiment.osexp","Bild_s1_b_21.png",1080,"fr",2001,"si","blaue","C:/Users/steff/Documents/Universität/Master Psychologie/SS 2022/Masterarbeit/Experiment/subject-16.csv",0,1,0,"l",30,30,"l","l",538.191399999952,538.191399999952,16,NA,364816.8705,317841.2533,181877.5145,293612.5575,365355.8256,364508.9748,24204.7700000001,293687.7779,NA,14723.2996,NA,288617.1935,364516.2214,363965.7344,351790.6022,284706.8676,317942.6967,240880.5007,15525.4514000001,46290.1845,60913.8432000001,73589.0575000001,90564.2945000001,98608.1051,317942.9553,365355.9233,323740.0343,259772.1657,225547.0848,325322.9366,261666.643,361843.1501,235307.2294,363664.9809,NA,NA,NA,NA,NA,317935.4748,181877.337,240873.5774,351790.5288,284706.7821,317841.1883,317788.1714,363960.3122,14723.477,364816.9726,14723.5006000001,364508.892,181876.5649,293683.2265,293647.0384,15495.4784,225848.2169,NA,106320.4461,21,96273.8258,26,0,40,1,22,"Psychologie",5,3,3,3,3,3
81.4814814814815,96,3585.3303,"a","speed","si2001fr","1","b","a","0","1","0",56,3,700,"Thu Apr 20 09:55:06 2023",3,"sehr schwer","speed","Experiment.osexp","Bild_s1_b_7.png",1080,"fr",2001,"si","blaue","C:/Users/steff/Documents/Universität/Master Psychologie/SS 2022/Masterarbeit/Experiment/subject-16.csv",0,0,0,"l",35,35,"a","a",530.092300000018,530.092300000018,16,NA,366584.9492,317841.2533,181877.5145,293612.5575,367115.994,366276.6096,24204.7700000001,293687.7779,NA,14723.2996,NA,288617.1935,366283.8436,365701.8795,365783.8827,284706.8676,317942.6967,240880.5007,15525.4514000001,46290.1845,60913.8432000001,73589.0575000001,90564.2945000001,98608.1051,317942.9553,367116.0695,323740.0343,259772.1657,225547.0848,325322.9366,261666.643,365401.0016,235307.2294,363664.9809,NA,NA,NA,NA,NA,317935.4748,181877.337,240873.5774,365783.7918,284706.7821,317841.1883,317788.1714,365696.317,14723.477,366585.1187,14723.5006000001,366276.5304,181876.5649,293683.2265,293647.0384,15495.4784,225848.2169,NA,106320.4461,22,96803.9181,27,0,40,1,22,"Psychologie",5,3,3,3,3,3
82.1428571428571,96,3476.85388214286,"a","speed","si2001fr","1","b","a","0","1","0",57,3,700,"Thu Apr 20 09:55:06 2023",3,"sehr schwer","speed","Experiment.osexp","Bild_s1_b_2.png",1080,"fr",2001,"si","blaue","C:/Users/steff/Documents/Universität/Master Psychologie/SS 2022/Masterarbeit/Experiment/subject-16.csv",0,0,0,"l",40,40,"a","a",547.990600000019,547.990600000019,16,NA,368295.0365,317841.2533,181877.5145,293612.5575,368844.0518,367986.7136,24204.7700000001,293687.7779,NA,14723.2996,NA,288617.1935,367993.9285,367446.2086,365783.8827,284706.8676,317942.6967,240880.5007,15525.4514000001,46290.1845,60913.8432000001,73589.0575000001,90564.2945000001,98608.1051,317942.9553,368844.1283,323740.0343,259772.1657,225547.0848,325322.9366,261666.643,365401.0016,235307.2294,367145.0891,NA,NA,NA,NA,NA,317935.4748,181877.337,240873.5774,365783.7918,284706.7821,317841.1883,317788.1714,367440.7755,14723.477,368295.1601,14723.5006000001,367986.6357,181876.5649,293683.2265,293647.0384,15495.4784,225848.2169,NA,106320.4461,23,97351.9087000001,28,0,40,1,22,"Psychologie",5,3,3,3,3,3
79.3103448275862,96,3375.47202068966,"a","speed","si2001fr","0","o","l","0","0","0",58,3,700,"Thu Apr 20 09:55:06 2023",3,"sehr schwer","speed","Experiment.osexp","Bild_s1_o_2.png",1080,"fr",2001,"si","blaue","C:/Users/steff/Documents/Universität/Master Psychologie/SS 2022/Masterarbeit/Experiment/subject-16.csv",0,1,0,"l",30,30,"a","a",536.779900000081,536.779900000081,16,NA,370018.144,317841.2533,181877.5145,293612.5575,370555.9153,369709.0465,24204.7700000001,293687.7779,NA,14723.2996,NA,288617.1935,369716.0412,369161.1434,365783.8827,284706.8676,317942.6967,240880.5007,15525.4514000001,46290.1845,60913.8432000001,73589.0575000001,90564.2945000001,98608.1051,317942.9553,370556.0164,323740.0343,259772.1657,225547.0848,325322.9366,261666.643,365401.0016,235307.2294,368860.5084,NA,NA,NA,NA,NA,317935.4748,181877.337,240873.5774,365783.7918,284706.7821,317841.1883,317788.1714,369155.6979,14723.477,370018.3669,14723.5006000001,369708.9664,181876.5649,293683.2265,293647.0384,15495.4784,225848.2169,NA,106320.4461,23,97888.6886000001,29,0,40,1,22,"Psychologie",5,3,3,3,3,3
80,96,3283.08552000001,"a","speed","si2001fr","1","b","a","0","1","0",59,3,700,"Thu Apr 20 09:55:06 2023",3,"sehr schwer","speed","Experiment.osexp","Bild_s1_b_18.png",1080,"fr",2001,"si","blaue","C:/Users/steff/Documents/Universität/Master Psychologie/SS 2022/Masterarbeit/Experiment/subject-16.csv",0,0,0,"l",35,35,"a","a",603.877000000037,603.877000000037,16,NA,371726.8571,317841.2533,181877.5145,293612.5575,372332.3106,371417.7354,24204.7700000001,293687.7779,NA,14723.2996,NA,288617.1935,371426.1297,370884.5974,365783.8827,284706.8676,317942.6967,240880.5007,15525.4514000001,46290.1845,60913.8432000001,73589.0575000001,90564.2945000001,98608.1051,317942.9553,372332.3869,323740.0343,259772.1657,225547.0848,325322.9366,261666.643,370584.113,235307.2294,368860.5084,NA,NA,NA,NA,NA,317935.4748,181877.337,240873.5774,365783.7918,284706.7821,317841.1883,317788.1714,370879.2156,14723.477,371726.9521,14723.5006000001,371417.6534,181876.5649,293683.2265,293647.0384,15495.4784,225848.2169,NA,106320.4461,24,98492.5656000002,30,0,40,1,22,"Psychologie",5,3,3,3,3,3
77.4193548387097,96,3195.49876129033,"a","speed","si2001fr","0","b","a","0","0","0",60,3,700,"Thu Apr 20 09:55:06 2023",3,"sehr schwer","speed","Experiment.osexp","Bild_s1_b_23.png",1080,"fr",2001,"si","blaue","C:/Users/steff/Documents/Universität/Master Psychologie/SS 2022/Masterarbeit/Experiment/subject-16.csv",0,1,0,"l",25,25,"l","l",567.896000000008,567.896000000008,16,NA,373507.2075,317841.2533,181877.5145,293612.5575,374076.1311,373199.3797,24204.7700000001,293687.7779,NA,14723.2996,NA,288617.1935,373206.593,372649.1659,365783.8827,284706.8676,317942.6967,240880.5007,15525.4514000001,46290.1845,60913.8432000001,73589.0575000001,90564.2945000001,98608.1051,317942.9553,374076.2294,323740.0343,259772.1657,225547.0848,325322.9366,261666.643,370584.113,235307.2294,372348.7003,NA,NA,NA,NA,NA,317935.4748,181877.337,240873.5774,365783.7918,284706.7821,317841.1883,317788.1714,372643.7552,14723.477,373507.2856,14723.5006000001,373199.3015,181876.5649,293683.2265,293647.0384,15495.4784,225848.2169,NA,106320.4461,24,99060.4616000002,31,0,40,1,22,"Psychologie",5,3,3,3,3,3
75,96,3115.50075312501,"a","speed","si2001fr","0","o","l","0","0","0",61,3,700,"Thu Apr 20 09:55:06 2023",3,"sehr schwer","speed","Experiment.osexp","Bild_s1_o_12.png",1080,"fr",2001,"si","blaue","C:/Users/steff/Documents/Universität/Master Psychologie/SS 2022/Masterarbeit/Experiment/subject-16.csv",0,1,0,"l",15,15,"a","a",635.562500000116,635.562500000116,16,NA,375263.5123,317841.2533,181877.5145,293612.5575,375899.8542,374955.7366,24204.7700000001,293687.7779,NA,14723.2996,NA,288617.1935,374962.5943,374391.9812,365783.8827,284706.8676,317942.6967,240880.5007,15525.4514000001,46290.1845,60913.8432000001,73589.0575000001,90564.2945000001,98608.1051,317942.9553,375899.9527,323740.0343,259772.1657,225547.0848,325322.9366,261666.643,374091.1615,235307.2294,372348.7003,NA,NA,NA,NA,NA,317935.4748,181877.337,240873.5774,365783.7918,284706.7821,317841.1883,317788.1714,374386.6442,14723.477,375263.6019,14723.5006000001,374955.66,181876.5649,293683.2265,293647.0384,15495.4784,225848.2169,NA,106320.4461,24,99696.0241000003,32,0,40,1,22,"Psychologie",5,3,3,3,3,3
75.7575757575758,96,3037.80851212122,"a","speed","si2001fr","1","o","l","0","1","0",62,3,700,"Thu Apr 20 09:55:06 2023",3,"sehr schwer","speed","Experiment.osexp","Bild_s1_o_21.png",1080,"fr",2001,"si","blaue","C:/Users/steff/Documents/Universität/Master Psychologie/SS 2022/Masterarbeit/Experiment/subject-16.csv",0,0,0,"l",20,20,"l","l",551.656799999822,551.656799999822,16,NA,377075.4238,317841.2533,181877.5145,293612.5575,377627.8168,376766.9698,24204.7700000001,293687.7779,NA,14723.2996,NA,288617.1935,376774.3893,376226.4888,365783.8827,284706.8676,317942.6967,240880.5007,15525.4514000001,46290.1845,60913.8432000001,73589.0575000001,90564.2945000001,98608.1051,317942.9553,377627.895,323740.0343,259772.1657,225547.0848,325322.9366,261666.643,375925.7512,235307.2294,372348.7003,NA,NA,NA,NA,NA,317935.4748,181877.337,240873.5774,365783.7918,284706.7821,317841.1883,317788.1714,376221.1505,14723.477,377075.5073,14723.5006000001,376766.8893,181876.5649,293683.2265,293647.0384,15495.4784,225848.2169,NA,106320.4461,25,100247.6809,33,0,40,1,22,"Psychologie",5,3,3,3,3,3
76.4705882352941,96,2970.1123764706,"a","speed","si2001fr","1","b","a","0","0","1",63,3,700,"Thu Apr 20 09:55:06 2023",3,"sehr schwer","speed","Experiment.osexp","Bild_s1_b_9.png",1080,"fr",2001,"si","blaue","C:/Users/steff/Documents/Universität/Master Psychologie/SS 2022/Masterarbeit/Experiment/subject-16.csv",0,0,0,"l",10,10,"a","a",736.139900000126,736.139900000126,16,NA,378794.8529,317841.2533,181877.5145,293612.5575,379531.8868,378487.2193,24204.7700000001,293687.7779,NA,14723.2996,NA,288617.1935,378494.2776,377956.2127,365783.8827,284706.8676,317942.6967,240880.5007,15525.4514000001,46290.1845,60913.8432000001,73589.0575000001,90564.2945000001,98608.1051,317942.9553,379531.9852,323740.0343,259772.1657,225547.0848,325322.9366,261666.643,375925.7512,235307.2294,377655.4336,NA,NA,NA,NA,NA,317935.4748,181877.337,240873.5774,365783.7918,284706.7821,317841.1883,317788.1714,377950.8698,14723.477,378795.0241,14723.5006000001,378487.1386,181876.5649,293683.2265,293647.0384,15495.4784,225848.2169,NA,106320.4461,26,100983.8208,34,0,40,1,22,"Psychologie",5,3,3,3,3,3
77.1428571428571,96,2900.91040571429,"a","speed","si2001fr","1","b","a","0","1","0",64,3,700,"Thu Apr 20 09:55:06 2023",2,"eher schwer","speed","Experiment.osexp","Bild_s2_b_8.png",1080,"fr",2001,"si","blaue","C:/Users/steff/Documents/Universität/Master Psychologie/SS 2022/Masterarbeit/Experiment/subject-16.csv",0,0,0,"l",15,15,"a","a",548.043399999908,548.043399999908,16,NA,380742.9584,317841.2533,181877.5145,293612.5575,381292.0072,380434.2325,24204.7700000001,293687.7779,NA,14723.2996,NA,288617.1935,380441.2324,379851.1283,379930.9598,284706.8676,317942.6967,240880.5007,15525.4514000001,46290.1845,60913.8432000001,73589.0575000001,90564.2945000001,98608.1051,317942.9553,381292.0827,323740.0343,259772.1657,225547.0848,379549.8473,261666.643,375925.7512,235307.2294,377655.4336,NA,NA,NA,NA,NA,317935.4748,181877.337,240873.5774,379930.8772,284706.7821,317841.1883,317788.1714,379845.6992,14723.477,380743.1225,14723.5006000001,380434.1505,181876.5649,293683.2265,293647.0384,15495.4784,225848.2169,NA,106320.4461,27,101531.8642,35,0,40,1,22,"Psychologie",5,3,3,3,3,3
77.7777777777778,96,2836.89310833334,"a","speed","si2001fr","1","o","l","0","1","0",65,3,700,"Thu Apr 20 09:55:06 2023",2,"eher schwer","speed","Experiment.osexp","Bild_s2_o_14.png",1080,"fr",2001,"si","blaue","C:/Users/steff/Documents/Universität/Master Psychologie/SS 2022/Masterarbeit/Experiment/subject-16.csv",0,0,0,"l",20,20,"l","l",596.287699999986,596.287699999986,16,NA,382470.7649,317841.2533,181877.5145,293612.5575,383068.0104,382161.5074,24204.7700000001,293687.7779,NA,14723.2996,NA,288617.1935,382168.9364,381621.5034,379930.9598,284706.8676,317942.6967,240880.5007,15525.4514000001,46290.1845,60913.8432000001,73589.0575000001,90564.2945000001,98608.1051,317942.9553,383068.0875,323740.0343,259772.1657,225547.0848,379549.8473,261666.643,375925.7512,235307.2294,381320.9189,NA,NA,NA,NA,NA,317935.4748,181877.337,240873.5774,379930.8772,284706.7821,317841.1883,317788.1714,381616.3025,14723.477,382470.8669,14723.5006000001,382161.376,181876.5649,293683.2265,293647.0384,15495.4784,225848.2169,NA,106320.4461,28,102128.1519,36,0,40,1,22,"Psychologie",5,3,3,3,3,3
78.3783783783784,96,2776.89683243244,"a","speed","si2001fr","1","o","l","0","1","0",66,3,700,"Thu Apr 20 09:55:06 2023",2,"eher schwer","speed","Experiment.osexp","Bild_s2_o_17.png",1080,"fr",2001,"si","blaue","C:/Users/steff/Documents/Universität/Master Psychologie/SS 2022/Masterarbeit/Experiment/subject-16.csv",0,0,0,"l",25,25,"l","l",617.030900000129,617.030900000129,16,NA,384242.0366,317841.2533,181877.5145,293612.5575,384859.9518,383933.6478,24204.7700000001,293687.7779,NA,14723.2996,NA,288617.1935,383940.7971,383394.2446,379930.9598,284706.8676,317942.6967,240880.5007,15525.4514000001,46290.1845,60913.8432000001,73589.0575000001,90564.2945000001,98608.1051,317942.9553,384860.0299,323740.0343,259772.1657,225547.0848,379549.8473,261666.643,375925.7512,235307.2294,383093.5028,NA,NA,NA,NA,NA,317935.4748,181877.337,240873.5774,379930.8772,284706.7821,317841.1883,317788.1714,383388.815,14723.477,384242.1202,14723.5006000001,383933.57,181876.5649,293683.2265,293647.0384,15495.4784,225848.2169,NA,106320.4461,29,102745.1828,37,0,40,1,22,"Psychologie",5,3,3,3,3,3
78.9473684210526,96,2719.22719473685,"a","speed","si2001fr","1","b","a","0","1","0",67,3,700,"Thu Apr 20 09:55:06 2023",2,"eher schwer","speed","Experiment.osexp","Bild_s2_b_2.png",1080,"fr",2001,"si","blaue","C:/Users/steff/Documents/Universität/Master Psychologie/SS 2022/Masterarbeit/Experiment/subject-16.csv",0,0,0,"l",30,30,"a","a",585.45060000004,585.45060000004,16,NA,386033.5245,317841.2533,181877.5145,293612.5575,386619.9229,385725.357,24204.7700000001,293687.7779,NA,14723.2996,NA,288617.1935,385732.8152,385180.9753,379930.9598,284706.8676,317942.6967,240880.5007,15525.4514000001,46290.1845,60913.8432000001,73589.0575000001,90564.2945000001,98608.1051,317942.9553,386619.9982,323740.0343,259772.1657,225547.0848,379549.8473,261666.643,375925.7512,235307.2294,384879.7613,NA,NA,NA,NA,NA,317935.4748,181877.337,240873.5774,379930.8772,284706.7821,317841.1883,317788.1714,385175.0021,14723.477,386033.7037,14723.5006000001,385725.2762,181876.5649,293683.2265,293647.0384,15495.4784,225848.2169,NA,106320.4461,30,103330.6334,38,0,40,1,22,"Psychologie",5,3,3,3,3,3
79.4871794871795,96,2661.63323589744,"a","speed","si2001fr","1","o","l","0","1","0",68,3,700,"Thu Apr 20 09:55:06 2023",2,"eher schwer","speed","Experiment.osexp","Bild_s2_o_9.png",1080,"fr",2001,"si","blaue","C:/Users/steff/Documents/Universität/Master Psychologie/SS 2022/Masterarbeit/Experiment/subject-16.csv",0,0,0,"l",35,35,"l","l",473.062799999956,473.062799999956,16,NA,387793.8921,317841.2533,181877.5145,293612.5575,388267.8875,387485.6136,24204.7700000001,293687.7779,NA,14723.2996,NA,288617.1935,387492.7709,386949.2147,379930.9598,284706.8676,317942.6967,240880.5007,15525.4514000001,46290.1845,60913.8432000001,73589.0575000001,90564.2945000001,98608.1051,317942.9553,388267.963,323740.0343,259772.1657,225547.0848,379549.8473,261666.643,375925.7512,235307.2294,386648.7712,NA,NA,NA,NA,NA,317935.4748,181877.337,240873.5774,379930.8772,284706.7821,317841.1883,317788.1714,386943.8165,14723.477,387794.0806,14723.5006000001,387485.5323,181876.5649,293683.2265,293647.0384,15495.4784,225848.2169,NA,106320.4461,31,103803.6962,39,0,40,1,22,"Psychologie",5,3,3,3,3,3
77.5,96,2606.85192250001,"a","speed","si2001fr","0","o","l","0","0","0",69,3,700,"Thu Apr 20 09:55:06 2023",2,"eher schwer","speed","Experiment.osexp","Bild_s2_o_13.png",1080,"fr",2001,"si","blaue","C:/Users/steff/Documents/Universität/Master Psychologie/SS 2022/Masterarbeit/Experiment/subject-16.csv",0,1,0,"l",25,25,"a","a",470.380700000096,470.380700000096,16,NA,389444.6703,317841.2533,181877.5145,293612.5575,389915.8767,389136.4216,24204.7700000001,293687.7779,NA,14723.2996,NA,288617.1935,389143.3616,388598.5215,379930.9598,284706.8676,317942.6967,240880.5007,15525.4514000001,46290.1845,60913.8432000001,73589.0575000001,90564.2945000001,98608.1051,317942.9553,389915.9722,323740.0343,259772.1657,225547.0848,379549.8473,261666.643,375925.7512,235307.2294,388297.118,NA,NA,NA,NA,NA,317935.4748,181877.337,240873.5774,379930.8772,284706.7821,317841.1883,317788.1714,388593.0778,14723.477,389444.7615,14723.5006000001,389136.3421,181876.5649,293683.2265,293647.0384,15495.4784,225848.2169,NA,106320.4461,31,104274.0769,40,0,40,1,22,"Psychologie",5,3,3,3,3,3
78.0487804878049,96,2553.9060390244,"a","speed","si2001fr","1","o","l","0","1","0",70,3,700,"Thu Apr 20 09:55:06 2023",2,"eher schwer","speed","Experiment.osexp","Bild_s2_o_15.png",1080,"fr",2001,"si","blaue","C:/Users/steff/Documents/Universität/Master Psychologie/SS 2022/Masterarbeit/Experiment/subject-16.csv",0,0,0,"l",30,30,"l","l",436.070700000098,436.070700000098,16,NA,391094.9791,317841.2533,181877.5145,293612.5575,391531.8756,390786.9799,24204.7700000001,293687.7779,NA,14723.2996,NA,288617.1935,390794.2488,390250.2545,379930.9598,284706.8676,317942.6967,240880.5007,15525.4514000001,46290.1845,60913.8432000001,73589.0575000001,90564.2945000001,98608.1051,317942.9553,391531.9546,323740.0343,259772.1657,225547.0848,379549.8473,261666.643,389949.719,235307.2294,388297.118,NA,NA,NA,NA,NA,317935.4748,181877.337,240873.5774,379930.8772,284706.7821,317841.1883,317788.1714,390244.9514,14723.477,391095.0783,14723.5006000001,390786.9002,181876.5649,293683.2265,293647.0384,15495.4784,225848.2169,NA,106320.4461,32,104710.1476,41,0,40,1,22,"Psychologie",5,3,3,3,3,3
78.5714285714286,96,2505.48932142858,"a","speed","si2001fr","1","o","l","0","1","0",71,3,700,"Thu Apr 20 09:55:06 2023",2,"eher schwer","speed","Experiment.osexp","Bild_s2_o_21.png",1080,"fr",2001,"si","blaue","C:/Users/steff/Documents/Universität/Master Psychologie/SS 2022/Masterarbeit/Experiment/subject-16.csv",0,0,0,"l",35,35,"l","l",520.403899999976,520.403899999976,16,NA,392706.6562,317841.2533,181877.5145,293612.5575,393227.9129,392398.8447,24204.7700000001,293687.7779,NA,14723.2996,NA,288617.1935,392405.8226,391852.7189,379930.9598,284706.8676,317942.6967,240880.5007,15525.4514000001,46290.1845,60913.8432000001,73589.0575000001,90564.2945000001,98608.1051,317942.9553,393227.9923,323740.0343,259772.1657,225547.0848,379549.8473,261666.643,389949.719,235307.2294,391552.2531,NA,NA,NA,NA,NA,317935.4748,181877.337,240873.5774,379930.8772,284706.7821,317841.1883,317788.1714,391847.2123,14723.477,392706.7343,14723.5006000001,392398.7087,181876.5649,293683.2265,293647.0384,15495.4784,225848.2169,NA,106320.4461,33,105230.5515,42,0,40,1,22,"Psychologie",5,3,3,3,3,3
76.7441860465116,96,2456.28858139536,"a","speed","si2001fr","0","o","l","0","0","0",72,3,700,"Thu Apr 20 09:55:06 2023",3,"sehr schwer","speed","Experiment.osexp","Bild_s1_o_11.png",1080,"fr",2001,"si","blaue","C:/Users/steff/Documents/Universität/Master Psychologie/SS 2022/Masterarbeit/Experiment/subject-16.csv",0,1,0,"l",25,25,"a","a",389.8575000001,389.8575000001,16,NA,394437.2342,317841.2533,181877.5145,293612.5575,394828.0407,394129.7206,24204.7700000001,293687.7779,NA,14723.2996,NA,288617.1935,394136.7315,393553.3938,393629.8309,284706.8676,317942.6967,240880.5007,15525.4514000001,46290.1845,60913.8432000001,73589.0575000001,90564.2945000001,98608.1051,317942.9553,394828.1367,323740.0343,259772.1657,225547.0848,379549.8473,261666.643,389949.719,235307.2294,393252.8009,NA,NA,NA,NA,NA,317935.4748,181877.337,240873.5774,393629.7566,284706.7821,317841.1883,317788.1714,393547.9584,14723.477,394437.3255,14723.5006000001,394129.643,181876.5649,293683.2265,293647.0384,15495.4784,225848.2169,NA,106320.4461,33,105620.409000001,43,0,40,1,22,"Psychologie",5,3,3,3,3,3
77.2727272727273,96,2413.66131818183,"a","speed","si2001fr","1","b","a","0","1","0",73,3,700,"Thu Apr 20 09:55:06 2023",3,"sehr schwer","speed","Experiment.osexp","Bild_s1_b_8.png",1080,"fr",2001,"si","blaue","C:/Users/steff/Documents/Universität/Master Psychologie/SS 2022/Masterarbeit/Experiment/subject-16.csv",0,0,0,"l",30,30,"a","a",580.689000000129,580.689000000129,16,NA,396006.3584,317841.2533,181877.5145,293612.5575,396587.9568,395698.5001,24204.7700000001,293687.7779,NA,14723.2996,NA,288617.1935,395705.7911,395156.9437,393629.8309,284706.8676,317942.6967,240880.5007,15525.4514000001,46290.1845,60913.8432000001,73589.0575000001,90564.2945000001,98608.1051,317942.9553,396588.0348,323740.0343,259772.1657,225547.0848,379549.8473,261666.643,394855.9897,235307.2294,393252.8009,NA,NA,NA,NA,NA,317935.4748,181877.337,240873.5774,393629.7566,284706.7821,317841.1883,317788.1714,395151.5763,14723.477,396006.4377,14723.5006000001,395698.4213,181876.5649,293683.2265,293647.0384,15495.4784,225848.2169,NA,106320.4461,34,106201.098000001,44,0,40,1,22,"Psychologie",5,3,3,3,3,3
77.7777777777778,96,2372.13947111113,"a","speed","si2001fr","1","o","l","0","1","0",74,3,700,"Thu Apr 20 09:55:06 2023",3,"sehr schwer","speed","Experiment.osexp","Bild_s1_o_24.png",1080,"fr",2001,"si","blaue","C:/Users/steff/Documents/Universität/Master Psychologie/SS 2022/Masterarbeit/Experiment/subject-16.csv",0,0,0,"l",35,35,"l","l",545.178199999966,545.178199999966,16,NA,397753.8604,317841.2533,181877.5145,293612.5575,398299.9019,397444.4397,24204.7700000001,293687.7779,NA,14723.2996,NA,288617.1935,397452.999,396900.0761,393629.8309,284706.8676,317942.6967,240880.5007,15525.4514000001,46290.1845,60913.8432000001,73589.0575000001,90564.2945000001,98608.1051,317942.9553,398299.9767,323740.0343,259772.1657,225547.0848,379549.8473,261666.643,394855.9897,235307.2294,396599.5842,NA,NA,NA,NA,NA,317935.4748,181877.337,240873.5774,393629.7566,284706.7821,317841.1883,317788.1714,396894.6108,14723.477,397753.9479,14723.5006000001,397444.3572,181876.5649,293683.2265,293647.0384,15495.4784,225848.2169,NA,106320.4461,35,106746.276200001,45,0,40,1,22,"Psychologie",5,3,3,3,3,3
78.2608695652174,96,2330.48967391305,"a","speed","si2001fr","1","o","l","0","1","0",75,3,700,"Thu Apr 20 09:55:06 2023",3,"sehr schwer","speed","Experiment.osexp","Bild_s1_o_15.png",1080,"fr",2001,"si","blaue","C:/Users/steff/Documents/Universität/Master Psychologie/SS 2022/Masterarbeit/Experiment/subject-16.csv",0,0,0,"l",40,40,"l","l",456.248799999885,456.248799999885,16,NA,399474.6727,317841.2533,181877.5145,293612.5575,399931.881,399165.7291,24204.7700000001,293687.7779,NA,14723.2996,NA,288617.1935,399173.077,398620.9574,393629.8309,284706.8676,317942.6967,240880.5007,15525.4514000001,46290.1845,60913.8432000001,73589.0575000001,90564.2945000001,98608.1051,317942.9553,399931.9599,323740.0343,259772.1657,225547.0848,379549.8473,261666.643,394855.9897,235307.2294,398320.2873,NA,NA,NA,NA,NA,317935.4748,181877.337,240873.5774,393629.7566,284706.7821,317841.1883,317788.1714,398615.6231,14723.477,399474.865,14723.5006000001,399165.646,181876.5649,293683.2265,293647.0384,15495.4784,225848.2169,NA,106320.4461,36,107202.525000001,46,0,40,1,22,"Psychologie",5,3,3,3,3,3
76.5957446808511,96,2289.06597659575,"a","speed","si2001fr","0","o","l","0","0","0",76,3,700,"Thu Apr 20 09:55:06 2023",3,"sehr schwer","speed","Experiment.osexp","Bild_s1_o_18.png",1080,"fr",2001,"si","blaue","C:/Users/steff/Documents/Universität/Master Psychologie/SS 2022/Masterarbeit/Experiment/subject-16.csv",0,1,0,"l",30,30,"a","a",383.57589999988,383.57589999988,16,NA,401099.4585,317841.2533,181877.5145,293612.5575,401483.8797,400791.5963,24204.7700000001,293687.7779,NA,14723.2996,NA,288617.1935,400798.8078,400243.2376,393629.8309,284706.8676,317942.6967,240880.5007,15525.4514000001,46290.1845,60913.8432000001,73589.0575000001,90564.2945000001,98608.1051,317942.9553,401483.9781,323740.0343,259772.1657,225547.0848,379549.8473,261666.643,394855.9897,235307.2294,399942.7538,NA,NA,NA,NA,NA,317935.4748,181877.337,240873.5774,393629.7566,284706.7821,317841.1883,317788.1714,400237.7622,14723.477,401099.5421,14723.5006000001,400791.5179,181876.5649,293683.2265,293647.0384,15495.4784,225848.2169,NA,106320.4461,36,107586.1009,47,0,40,1,22,"Psychologie",5,3,3,3,3,3
75,96,2251.26518125001,"a","speed","si2001fr","0","o","l","0","0","0",77,3,700,"Thu Apr 20 09:55:06 2023",3,"sehr schwer","speed","Experiment.osexp","Bild_s1_o_16.png",1080,"fr",2001,"si","blaue","C:/Users/steff/Documents/Universität/Master Psychologie/SS 2022/Masterarbeit/Experiment/subject-16.csv",0,1,0,"l",20,20,"a","a",474.627800000017,474.627800000017,16,NA,402656.3574,317841.2533,181877.5145,293612.5575,403132.8178,402348.6907,24204.7700000001,293687.7779,NA,14723.2996,NA,288617.1935,402355.7084,401805.815,393629.8309,284706.8676,317942.6967,240880.5007,15525.4514000001,46290.1845,60913.8432000001,73589.0575000001,90564.2945000001,98608.1051,317942.9553,403132.9187,323740.0343,259772.1657,225547.0848,379549.8473,261666.643,401504.195,235307.2294,399942.7538,NA,NA,NA,NA,NA,317935.4748,181877.337,240873.5774,393629.7566,284706.7821,317841.1883,317788.1714,401800.3833,14723.477,402656.4989,14723.5006000001,402348.5139,181876.5649,293683.2265,293647.0384,15495.4784,225848.2169,NA,106320.4461,36,108060.7287,48,0,40,1,22,"Psychologie",5,3,3,3,3,3
75.5102040816327,96,2213.58982040817,"a","speed","si2001fr","1","o","l","0","1","0",78,3,700,"Thu Apr 20 09:55:06 2023",3,"sehr schwer","speed","Experiment.osexp","Bild_s1_o_19.png",1080,"fr",2001,"si","blaue","C:/Users/steff/Documents/Universität/Master Psychologie/SS 2022/Masterarbeit/Experiment/subject-16.csv",0,0,0,"l",25,25,"l","l",405.172499999928,405.172499999928,16,NA,404309.8121,317841.2533,181877.5145,293612.5575,404715.9815,404001.6443,24204.7700000001,293687.7779,NA,14723.2996,NA,288617.1935,404009.0138,403458.8479,393629.8309,284706.8676,317942.6967,240880.5007,15525.4514000001,46290.1845,60913.8432000001,73589.0575000001,90564.2945000001,98608.1051,317942.9553,404716.0578,323740.0343,259772.1657,225547.0848,379549.8473,261666.643,403157.944,235307.2294,399942.7538,NA,NA,NA,NA,NA,317935.4748,181877.337,240873.5774,393629.7566,284706.7821,317841.1883,317788.1714,403453.4451,14723.477,404309.9456,14723.5006000001,404001.565,181876.5649,293683.2265,293647.0384,15495.4784,225848.2169,NA,106320.4461,37,108465.9012,49,0,40,1,22,"Psychologie",5,3,3,3,3,3
76,96,2180.65922800001,"a","speed","si2001fr","1","b","a","0","1","0",79,3,700,"Thu Apr 20 09:55:06 2023",3,"sehr schwer","speed","Experiment.osexp","Bild_s1_b_10.png",1080,"fr",2001,"si","blaue","C:/Users/steff/Documents/Universität/Master Psychologie/SS 2022/Masterarbeit/Experiment/subject-16.csv",0,0,0,"l",30,30,"a","a",567.060200000007,567.060200000007,16,NA,405907.9286,317841.2533,181877.5145,293612.5575,406475.8131,405589.7892,24204.7700000001,293687.7779,NA,14723.2996,NA,288617.1935,405596.9014,405041.3415,393629.8309,284706.8676,317942.6967,240880.5007,15525.4514000001,46290.1845,60913.8432000001,73589.0575000001,90564.2945000001,98608.1051,317942.9553,406475.8935,323740.0343,259772.1657,225547.0848,379549.8473,261666.643,403157.944,235307.2294,404740.2652,NA,NA,NA,NA,NA,317935.4748,181877.337,240873.5774,393629.7566,284706.7821,317841.1883,317788.1714,405035.972,14723.477,405908.0324,14723.5006000001,405589.7116,181876.5649,293683.2265,293647.0384,15495.4784,225848.2169,NA,106320.4461,38,109032.9614,50,0,40,1,22,"Psychologie",5,3,3,3,3,3
50,96,4148.52264999991,"a","accuracy","si2001fr","0","b","a","0","0","0",80,4,700,"Thu Apr 20 09:55:06 2023",3,"sehr schwer","speed","Experiment.osexp","Bild_s1_b_5.png",1080,"fr",2001,"si","blaue","C:/Users/steff/Documents/Universität/Master Psychologie/SS 2022/Masterarbeit/Experiment/subject-16.csv",1,0,0,"l",20,-10,"l","l",3294.31799999997,3294.31799999997,16,NA,417852.7472,317841.2533,181877.5145,411931.6113,421148.1006,417544.7255,24204.7700000001,293687.7779,NA,14723.2996,406935.9853,288617.1935,417551.6862,406795.2034,417052.4984,284706.8676,412048.2055,240880.5007,15525.4514000001,46290.1845,60913.8432000001,73589.0575000001,90564.2945000001,98608.1051,412048.3809,421148.1622,417051.6996,259772.1657,225547.0848,379549.8473,261666.643,403157.944,235307.2294,406493.8699,NA,NA,NA,NA,NA,412041.8522,181877.337,240873.5774,417052.443,284706.7821,317841.1883,317788.1714,406789.8504,14723.477,417852.9115,14723.5006000001,417544.5334,181876.5649,293683.2265,293647.0384,15495.4784,225848.2169,NA,106320.4461,1,8297.04529999982,2,0,70,1,22,"Psychologie",5,3,3,3,3,3
66.6666666666667,96,3118.6099,"a","accuracy","si2001fr","1","o","l","1","0","0",81,4,700,"Thu Apr 20 09:55:06 2023",3,"sehr schwer","speed","Experiment.osexp","Bild_s1_o_9.png",1080,"fr",2001,"si","blaue","C:/Users/steff/Documents/Universität/Master Psychologie/SS 2022/Masterarbeit/Experiment/subject-16.csv",0,0,0,"l",25,-5,"l","l",1058.78440000018,1058.78440000018,16,NA,423304.1515,317841.2533,181877.5145,411931.6113,424363.9779,422996.2343,24204.7700000001,293687.7779,NA,14723.2996,406935.9853,288617.1935,423003.4046,422468.129,417052.4984,284706.8676,412048.2055,240880.5007,15525.4514000001,46290.1845,60913.8432000001,73589.0575000001,90564.2945000001,98608.1051,412048.3809,424364.0447,417051.6996,259772.1657,421162.9936,379549.8473,261666.643,403157.944,235307.2294,406493.8699,NA,NA,NA,NA,NA,412041.8522,181877.337,240873.5774,417052.443,284706.7821,317841.1883,317788.1714,422462.5545,14723.477,423304.333,14723.5006000001,422996.1571,181876.5649,293683.2265,293647.0384,15495.4784,421467.3252,NA,106320.4461,2,9355.8297,3,0,70,1,22,"Psychologie",5,3,3,3,3,3
50,96,2613.49217500005,"a","accuracy","si2001fr","0","b","a","0","0","0",82,4,700,"Thu Apr 20 09:55:06 2023",3,"sehr schwer","speed","Experiment.osexp","Bild_s1_b_11.png",1080,"fr",2001,"si","blaue","C:/Users/steff/Documents/Universität/Master Psychologie/SS 2022/Masterarbeit/Experiment/subject-16.csv",1,0,0,"l",15,-15,"l","l",1098.1390000002,1098.1390000002,16,NA,425520.8109,317841.2533,181877.5145,411931.6113,426619.7501,425212.4322,24204.7700000001,293687.7779,NA,14723.2996,406935.9853,288617.1935,425219.5922,424680.5475,417052.4984,284706.8676,412048.2055,240880.5007,15525.4514000001,46290.1845,60913.8432000001,73589.0575000001,90564.2945000001,98608.1051,412048.3809,426619.8212,417051.6996,259772.1657,421162.9936,379549.8473,261666.643,403157.944,424379.7644,406493.8699,NA,NA,NA,NA,NA,412041.8522,181877.337,240873.5774,417052.443,284706.7821,317841.1883,317788.1714,424675.0899,14723.477,425520.9477,14723.5006000001,425212.3377,181876.5649,293683.2265,293647.0384,15495.4784,421467.3252,NA,106320.4461,2,10453.9687000002,4,0,70,1,22,"Psychologie",5,3,3,3,3,3
60,96,2284.84210000008,"a","accuracy","si2001fr","1","b","a","1","0","0",83,4,700,"Thu Apr 20 09:55:06 2023",3,"sehr schwer","speed","Experiment.osexp","Bild_s1_b_22.png",1080,"fr",2001,"si","blaue","C:/Users/steff/Documents/Universität/Master Psychologie/SS 2022/Masterarbeit/Experiment/subject-16.csv",0,0,0,"l",20,-10,"a","a",970.241800000193,970.241800000193,16,NA,427792.7552,317841.2533,181877.5145,411931.6113,428763.6422,427484.4617,24204.7700000001,293687.7779,NA,14723.2996,406935.9853,288617.1935,427491.5327,426949.0376,417052.4984,284706.8676,412048.2055,240880.5007,15525.4514000001,46290.1845,60913.8432000001,73589.0575000001,90564.2945000001,98608.1051,412048.3809,428763.7136,417051.6996,259772.1657,426648.4455,379549.8473,261666.643,403157.944,424379.7644,406493.8699,NA,NA,NA,NA,NA,412041.8522,181877.337,240873.5774,417052.443,284706.7821,317841.1883,317788.1714,426943.6354,14723.477,427792.8417,14723.5006000001,427484.3795,181876.5649,293683.2265,293647.0384,15495.4784,421467.3252,NA,106320.4461,3,11424.2105000004,5,0,70,1,22,"Psychologie",5,3,3,3,3,3
50,96,2095.5325833334,"a","accuracy","si2001fr","0","o","l","0","0","0",84,4,700,"Thu Apr 20 09:55:06 2023",3,"sehr schwer","speed","Experiment.osexp","Bild_s1_o_20.png",1080,"fr",2001,"si","blaue","C:/Users/steff/Documents/Universität/Master Psychologie/SS 2022/Masterarbeit/Experiment/subject-16.csv",1,0,0,"l",10,-20,"a","a",1148.98499999999,1148.98499999999,16,NA,429933.9816,317841.2533,181877.5145,411931.6113,431083.8147,429623.3201,24204.7700000001,293687.7779,NA,14723.2996,406935.9853,288617.1935,429632.1584,429079.0781,417052.4984,284706.8676,412048.2055,240880.5007,15525.4514000001,46290.1845,60913.8432000001,73589.0575000001,90564.2945000001,98608.1051,412048.3809,431083.8948,417051.6996,259772.1657,426648.4455,379549.8473,261666.643,403157.944,428779.0244,406493.8699,NA,NA,NA,NA,NA,412041.8522,181877.337,240873.5774,417052.443,284706.7821,317841.1883,317788.1714,429073.7049,14723.477,429934.0714,14723.5006000001,429623.2411,181876.5649,293683.2265,293647.0384,15495.4784,421467.3252,NA,106320.4461,3,12573.1955000004,6,0,70,1,22,"Psychologie",5,3,3,3,3,3
57.1428571428571,96,1944.46332857148,"a","accuracy","si2001fr","1","o","l","1","0","0",85,4,700,"Thu Apr 20 09:55:06 2023",3,"sehr schwer","speed","Experiment.osexp","Bild_s1_o_23.png",1080,"fr",2001,"si","blaue","C:/Users/steff/Documents/Universität/Master Psychologie/SS 2022/Masterarbeit/Experiment/subject-16.csv",0,0,0,"l",15,-15,"l","l",1038.0478,1038.0478,16,NA,432252.9434,317841.2533,181877.5145,411931.6113,433291.6442,431944.7815,24204.7700000001,293687.7779,NA,14723.2996,406935.9853,288617.1935,431952.1663,431398.9901,417052.4984,284706.8676,412048.2055,240880.5007,15525.4514000001,46290.1845,60913.8432000001,73589.0575000001,90564.2945000001,98608.1051,412048.3809,433291.7183,417051.6996,259772.1657,431098.0868,379549.8473,261666.643,403157.944,428779.0244,406493.8699,NA,NA,NA,NA,NA,412041.8522,181877.337,240873.5774,417052.443,284706.7821,317841.1883,317788.1714,431393.571,14723.477,432253.0416,14723.5006000001,431944.7003,181876.5649,293683.2265,293647.0384,15495.4784,421467.3252,NA,106320.4461,4,13611.2433000004,7,0,70,1,22,"Psychologie",5,3,3,3,3,3
50,96,1890.27303750005,"a","accuracy","si2001fr","0","b","a","0","0","0",86,4,700,"Thu Apr 20 09:55:06 2023",3,"sehr schwer","speed","Experiment.osexp","Bild_s1_b_20.png",1080,"fr",2001,"si","blaue","C:/Users/steff/Documents/Universität/Master Psychologie/SS 2022/Masterarbeit/Experiment/subject-16.csv",1,0,0,"l",5,-25,"l","l",1510.94100000005,1510.94100000005,16,NA,434454.7956,317841.2533,181877.5145,411931.6113,435966.5489,434146.7507,24204.7700000001,293687.7779,NA,14723.2996,406935.9853,288617.1935,434153.7079,433608.0814,417052.4984,284706.8676,412048.2055,240880.5007,15525.4514000001,46290.1845,60913.8432000001,73589.0575000001,90564.2945000001,98608.1051,412048.3809,435966.6216,417051.6996,259772.1657,431098.0868,379549.8473,261666.643,403157.944,433307.3038,406493.8699,NA,NA,NA,NA,NA,412041.8522,181877.337,240873.5774,417052.443,284706.7821,317841.1883,317788.1714,433602.6533,14723.477,434454.883,14723.5006000001,434146.6651,181876.5649,293683.2265,293647.0384,15495.4784,421467.3252,NA,106320.4461,4,15122.1843000004,8,0,70,1,22,"Psychologie",5,3,3,3,3,3
55.5555555555556,96,1841.12573333339,"a","accuracy","si2001fr","1","o","l","1","0","0",87,4,700,"Thu Apr 20 09:55:06 2023",3,"sehr schwer","speed","Experiment.osexp","Bild_s1_o_16.png",1080,"fr",2001,"si","blaue","C:/Users/steff/Documents/Universität/Master Psychologie/SS 2022/Masterarbeit/Experiment/subject-16.csv",0,0,0,"l",10,-20,"l","l",1447.94730000012,1447.94730000012,16,NA,437138.9101,317841.2533,181877.5145,411931.6113,438587.9082,436830.8956,24204.7700000001,293687.7779,NA,14723.2996,406935.9853,288617.1935,436838.1985,436292.9408,417052.4984,284706.8676,412048.2055,240880.5007,15525.4514000001,46290.1845,60913.8432000001,73589.0575000001,90564.2945000001,98608.1051,412048.3809,438587.9803,417051.6996,259772.1657,435992.2506,379549.8473,261666.643,403157.944,433307.3038,406493.8699,NA,NA,NA,NA,NA,412041.8522,181877.337,240873.5774,417052.443,284706.7821,317841.1883,317788.1714,436287.5962,14723.477,437139.1005,14723.5006000001,436830.8173,181876.5649,293683.2265,293647.0384,15495.4784,421467.3252,NA,106320.4461,5,16570.1316000005,9,0,70,1,22,"Psychologie",5,3,3,3,3,3
60,96,1811.73531000005,"a","accuracy","si2001fr","1","o","l","1","0","0",88,4,700,"Thu Apr 20 09:55:06 2023",2,"eher schwer","speed","Experiment.osexp","Bild_s2_o_6.png",1080,"fr",2001,"si","blaue","C:/Users/steff/Documents/Universität/Master Psychologie/SS 2022/Masterarbeit/Experiment/subject-16.csv",0,0,0,"l",15,-15,"l","l",1547.22149999999,1547.22149999999,16,NA,439823.7532,317841.2533,181877.5145,411931.6113,441371.7665,439516.0288,24204.7700000001,293687.7779,NA,14723.2996,406935.9853,288617.1935,439522.8947,438918.4103,439000.7984,284706.8676,412048.2055,240880.5007,15525.4514000001,46290.1845,60913.8432000001,73589.0575000001,90564.2945000001,98608.1051,412048.3809,441371.8384,417051.6996,259772.1657,435992.2506,379549.8473,261666.643,403157.944,438614.9366,406493.8699,NA,NA,NA,NA,NA,412041.8522,181877.337,240873.5774,439000.7109,284706.7821,317841.1883,317788.1714,438912.9933,14723.477,439823.8405,14723.5006000001,439515.9496,181876.5649,293683.2265,293647.0384,15495.4784,421467.3252,NA,106320.4461,6,18117.3531000005,10,0,70,1,22,"Psychologie",5,3,3,3,3,3
63.6363636363636,96,1721.96303636368,"a","accuracy","si2001fr","1","b","a","1","0","0",89,4,700,"Thu Apr 20 09:55:06 2023",2,"eher schwer","speed","Experiment.osexp","Bild_s2_b_15.png",1080,"fr",2001,"si","blaue","C:/Users/steff/Documents/Universität/Master Psychologie/SS 2022/Masterarbeit/Experiment/subject-16.csv",0,0,0,"l",20,-10,"a","a",824.240299999947,824.240299999947,16,NA,442547.4539,317841.2533,181877.5145,411931.6113,443372.6565,442239.121,24204.7700000001,293687.7779,NA,14723.2996,406935.9853,288617.1935,442246.3455,441702.0661,439000.7984,284706.8676,412048.2055,240880.5007,15525.4514000001,46290.1845,60913.8432000001,73589.0575000001,90564.2945000001,98608.1051,412048.3809,443372.7283,417051.6996,259772.1657,435992.2506,379549.8473,261666.643,403157.944,441401.0681,406493.8699,NA,NA,NA,NA,NA,412041.8522,181877.337,240873.5774,439000.7109,284706.7821,317841.1883,317788.1714,441696.77,14723.477,442547.6271,14723.5006000001,442238.9857,181876.5649,293683.2265,293647.0384,15495.4784,421467.3252,NA,106320.4461,7,18941.5934000005,11,0,70,1,22,"Psychologie",5,3,3,3,3,3
66.6666666666667,96,1843.99395000004,"a","accuracy","si2001fr","1","b","a","1","0","0",90,4,700,"Thu Apr 20 09:55:06 2023",2,"eher schwer","speed","Experiment.osexp","Bild_s2_b_21.png",1080,"fr",2001,"si","blaue","C:/Users/steff/Documents/Universität/Master Psychologie/SS 2022/Masterarbeit/Experiment/subject-16.csv",0,0,0,"l",25,-5,"a","a",3186.33400000003,3186.33400000003,16,NA,444536.5904,317841.2533,181877.5145,411931.6113,447723.9117,444228.9982,24204.7700000001,293687.7779,NA,14723.2996,406935.9853,288617.1935,444235.8437,443689.0943,439000.7984,284706.8676,412048.2055,240880.5007,15525.4514000001,46290.1845,60913.8432000001,73589.0575000001,90564.2945000001,98608.1051,412048.3809,447723.9824,417051.6996,259772.1657,435992.2506,379549.8473,261666.643,403157.944,443388.7245,406493.8699,NA,NA,NA,NA,NA,412041.8522,181877.337,240873.5774,439000.7109,284706.7821,317841.1883,317788.1714,443683.742,14723.477,444536.7008,14723.5006000001,444228.918,181876.5649,293683.2265,293647.0384,15495.4784,421467.3252,NA,106320.4461,8,22127.9274000005,12,0,70,1,22,"Psychologie",5,3,3,3,3,3
69.2307692307692,96,1763.90457692311,"a","accuracy","si2001fr","1","o","l","1","0","0",91,4,700,"Thu Apr 20 09:55:06 2023",2,"eher schwer","speed","Experiment.osexp","Bild_s2_o_8.png",1080,"fr",2001,"si","blaue","C:/Users/steff/Documents/Universität/Master Psychologie/SS 2022/Masterarbeit/Experiment/subject-16.csv",0,0,0,"l",30,0,"l","l",802.832099999941,802.832099999941,16,NA,449880.149,317841.2533,181877.5145,411931.6113,450683.8785,449571.9163,24204.7700000001,293687.7779,NA,14723.2996,406935.9853,288617.1935,449578.7434,449042.6943,439000.7984,284706.8676,412048.2055,240880.5007,15525.4514000001,46290.1845,60913.8432000001,73589.0575000001,90564.2945000001,98608.1051,412048.3809,450683.942,417051.6996,259772.1657,435992.2506,379549.8473,261666.643,403157.944,447739.9196,406493.8699,NA,NA,NA,NA,NA,412041.8522,181877.337,240873.5774,439000.7109,284706.7821,317841.1883,317788.1714,449037.3093,14723.477,449880.2607,14723.5006000001,449571.8407,181876.5649,293683.2265,293647.0384,15495.4784,448041.9028,NA,106320.4461,9,22930.7595000005,13,0,70,1,22,"Psychologie",5,3,3,3,3,3
71.4285714285714,96,1719.58253571431,"a","accuracy","si2001fr","1","o","l","1","0","0",92,4,700,"Thu Apr 20 09:55:06 2023",2,"eher schwer","speed","Experiment.osexp","Bild_s2_o_18.png",1080,"fr",2001,"si","blaue","C:/Users/steff/Documents/Universität/Master Psychologie/SS 2022/Masterarbeit/Experiment/subject-16.csv",0,0,0,"l",35,5,"l","l",1143.39599999989,1143.39599999989,16,NA,451843.4768,317841.2533,181877.5145,411931.6113,452987.9081,451535.7689,24204.7700000001,293687.7779,NA,14723.2996,406935.9853,288617.1935,451542.87,451005.6461,439000.7984,284706.8676,412048.2055,240880.5007,15525.4514000001,46290.1845,60913.8432000001,73589.0575000001,90564.2945000001,98608.1051,412048.3809,452987.9736,417051.6996,259772.1657,435992.2506,379549.8473,261666.643,403157.944,450705.2035,406493.8699,NA,NA,NA,NA,NA,412041.8522,181877.337,240873.5774,439000.7109,284706.7821,317841.1883,317788.1714,451000.2101,14723.477,451843.6473,14723.5006000001,451535.6923,181876.5649,293683.2265,293647.0384,15495.4784,448041.9028,NA,106320.4461,10,24074.1555000003,14,0,70,1,22,"Psychologie",5,3,3,3,3,3
73.3333333333333,96,1709.53288000003,"a","accuracy","si2001fr","1","b","a","1","0","0",93,4,700,"Thu Apr 20 09:55:06 2023",2,"eher schwer","speed","Experiment.osexp","Bild_s2_b_19.png",1080,"fr",2001,"si","blaue","C:/Users/steff/Documents/Universität/Master Psychologie/SS 2022/Masterarbeit/Experiment/subject-16.csv",0,0,0,"l",40,10,"a","a",1568.83770000015,1568.83770000015,16,NA,454154.1308,317841.2533,181877.5145,411931.6113,455723.7416,453846.108,24204.7700000001,293687.7779,NA,14723.2996,406935.9853,288617.1935,453853.1078,453312.1792,439000.7984,284706.8676,412048.2055,240880.5007,15525.4514000001,46290.1845,60913.8432000001,73589.0575000001,90564.2945000001,98608.1051,412048.3809,455723.812,417051.6996,259772.1657,435992.2506,379549.8473,261666.643,403157.944,453011.4826,406493.8699,NA,NA,NA,NA,NA,412041.8522,181877.337,240873.5774,439000.7109,284706.7821,317841.1883,317788.1714,453306.7216,14723.477,454154.2182,14723.5006000001,453846.03,181876.5649,293683.2265,293647.0384,15495.4784,448041.9028,NA,106320.4461,11,25642.9932000005,15,0,70,1,22,"Psychologie",5,3,3,3,3,3
75,96,1650.94886250003,"a","accuracy","si2001fr","1","o","l","1","0","0",94,4,700,"Thu Apr 20 09:55:06 2023",2,"eher schwer","speed","Experiment.osexp","Bild_s2_o_22.png",1080,"fr",2001,"si","blaue","C:/Users/steff/Documents/Universität/Master Psychologie/SS 2022/Masterarbeit/Experiment/subject-16.csv",0,0,0,"l",45,15,"l","l",772.188599999936,772.188599999936,16,NA,456886.7675,317841.2533,181877.5145,411931.6113,457659.7671,456579.6055,24204.7700000001,293687.7779,NA,14723.2996,406935.9853,288617.1935,456586.7152,456039.8633,439000.7984,284706.8676,412048.2055,240880.5007,15525.4514000001,46290.1845,60913.8432000001,73589.0575000001,90564.2945000001,98608.1051,412048.3809,457659.8409,417051.6996,259772.1657,435992.2506,379549.8473,261666.643,403157.944,455739.3726,406493.8699,NA,NA,NA,NA,NA,412041.8522,181877.337,240873.5774,439000.7109,284706.7821,317841.1883,317788.1714,456034.608,14723.477,456886.8512,14723.5006000001,456579.5273,181876.5649,293683.2265,293647.0384,15495.4784,448041.9028,NA,106320.4461,12,26415.1818000004,16,0,70,1,22,"Psychologie",5,3,3,3,3,3
