"accuracy","anzahl_gruppen","avg_rt","blauetaste","block","code","correct","correct_colour","correct_response","correct1","correct2","correct3","count_bildstimulus_3_1","count_block","cutoff","datetime","difficulty","difficulty_f","erstebedingung","experiment_file","filename","height","id_geburtsort","id_jahr","id_vater","linketaste","logfile","loose1","loose2","loose3","orangenetaste","punkte1","punkteimblock","response","response_tasteresponse_3_1","response_time","response_time_tasteresponse_3_1","subject_nr","time_bildershuffle","time_bildstimulus_3_1","time_block","time_block_tut","time_blockwerte_zuruecksetzten","time_cutoff_werte_und_punkte_3_1","time_definecorrectcolour_3_1","time_eingabemaske_kuerzel_python","time_ende_tutorial_1","time_ende_experimentierungsphase","time_experiment","time_feedback_serie","time_feedback_tutorial","time_fixationcross_3_1","time_grauesbild_3_1","time_gruppe_block","time_gruppe_tutorial","time_instruktionen_block","time_instruktionen_tutorial_1","time_introduction_1","time_introduction_2_1","time_introduction_3_punkte","time_introduction_3_speed","time_introduction_4_accuracy","time_introduction_5_feedback","time_leertaste_fuer_naechsten_bildschirm","time_logger_3_1","time_loop_block","time_loop_block_tut","time_minifeedbacknegativ_acc","time_minifeedbacknegativ_speed_slow","time_minifeedbacknegativ_speed_slowandwrong","time_minifeedbacknegativ_speed_wrong","time_minifeedbackpositiv_acc","time_minifeedbackpositiv_speed","time_new_inline_script","time_pause_zwischen_serie_1","time_pause_zwischen_serie_2","time_reset_feedback","time_reset_feedback_1","time_sequenz_block","time_sequenz_block_tut","time_sequenz_block_tut_1","time_sequenz_gruppe","time_sequenz_gruppe_tut","time_sequenz_serie","time_serie","time_set_to_zero","time_start","time_tasteresponse_3_1","time_testloopprepareglitchtutorial","time_trial_3_1","time_tutorial","time_tutorial_ende","time_tutorial_wiederholungscheck","time_vorgeplaenkel","time_warnhinweis_3sek","time_warnhinweis_5sek","time_warnung_tutorial_1","total_correct","total_response_time","total_responses","tutorial","tutorialpunkte","geschlecht","alter","studiengang","bildungsabschluss","haendig1","haendig2","haendig3","haendig4","haendig_mean"
100,120,133725.832355545,"l","accuracy","ta1999ma","1","o","a","1","0","0",0,1,700,"Tue Mar 28 10:14:18 2023",3,"sehr schwer","speed","Experiment.osexp","Bild_s1_o_23.png",1080,"ma",1999,"ta","orangene","C:/Users/steff/Documents/Universität/Master Psychologie/SS 2022/Masterarbeit/Experiment/subject-5.csv",0,0,0,"a",5,5,"a","a",1681.12459999975,1681.12459999975,5,NA,395616.218900075,NA,378449.322800036,NA,397298.212100053,395306.677100016,17714.9353000568,NA,NA,6823.22620006744,NA,NA,395314.479500055,NA,NA,394627.488700091,NA,378565.746100037,7912.01920004096,48484.858400072,95512.0729000773,128731.563300011,160219.188300078,221831.020200043,378565.932100057,397298.299100017,NA,394626.285400009,NA,NA,NA,NA,NA,NA,NA,NA,NA,NA,NA,NA,378449.072499992,378557.617000071,NA,394627.437100047,NA,NA,NA,6823.36819998454,395616.323100054,6823.40069999918,395306.450400036,378447.906200076,NA,NA,7884.31590003893,NA,NA,239000.728700077,9,1203532.49119991,9,1,0,1,23,"Physik",6,3,3,3,3,3
90,120,120556.807189994,"l","accuracy","ta1999ma","0","b","l","0","0","0",1,1,700,"Tue Mar 28 10:14:18 2023",3,"sehr schwer","speed","Experiment.osexp","Bild_s1_b_4.png",1080,"ma",1999,"ta","orangene","C:/Users/steff/Documents/Universität/Master Psychologie/SS 2022/Masterarbeit/Experiment/subject-5.csv",1,0,0,"a",-5,-5,"a","a",2035.58070003055,2035.58070003055,5,NA,398669.644800015,NA,378449.322800036,NA,400706.137400004,398360.531700077,17714.9353000568,NA,NA,6823.22620006744,NA,NA,398368.205100065,397637.962999986,NA,394627.488700091,NA,378565.746100037,7912.01920004096,48484.858400072,95512.0729000773,128731.563300011,160219.188300078,221831.020200043,378565.932100057,400706.219000043,NA,394626.285400009,NA,NA,NA,NA,397336.678700056,NA,NA,NA,NA,NA,NA,NA,378449.072499992,378557.617000071,NA,394627.437100047,NA,NA,397631.841200055,6823.36819998454,398669.861100032,6823.40069999918,398360.439400072,378447.906200076,NA,NA,7884.31590003893,NA,NA,239000.728700077,9,1205568.07189994,10,1,0,1,23,"Physik",6,3,3,3,3,3
81.8181818181818,120,109700.227472719,"l","accuracy","ta1999ma","0","b","l","0","0","0",2,1,700,"Tue Mar 28 10:14:18 2023",2,"eher schwer","speed","Experiment.osexp","Bild_s2_b_11.png",1080,"ma",1999,"ta","orangene","C:/Users/steff/Documents/Universität/Master Psychologie/SS 2022/Masterarbeit/Experiment/subject-5.csv",1,0,0,"a",-15,-15,"a","a",1134.4302999787,1134.4302999787,5,NA,402162.863800069,NA,378449.322800036,NA,403298.508699983,401853.406000067,17714.9353000568,NA,NA,6823.22620006744,NA,NA,401861.182900029,401027.746399981,NA,401138.092700043,NA,378565.746100037,7912.01920004096,48484.858400072,95512.0729000773,128731.563300011,160219.188300078,221831.020200043,378565.932100057,403298.611300066,NA,394626.285400009,400726.41880007,NA,NA,NA,397336.678700056,NA,NA,NA,NA,NA,NA,NA,378449.072499992,378557.617000071,NA,401137.965700007,NA,NA,401021.589300013,6823.36819998454,402163.055500016,6823.40069999918,401853.306400008,378447.906200076,NA,NA,7884.31590003893,NA,NA,239000.728700077,9,1206702.50219991,11,1,0,1,23,"Physik",6,3,3,3,3,3
75,120,100638.489558323,"l","accuracy","ta1999ma","0","b","l","0","0","0",3,1,700,"Tue Mar 28 10:14:18 2023",2,"eher schwer","speed","Experiment.osexp","Bild_s2_b_23.png",1080,"ma",1999,"ta","orangene","C:/Users/steff/Documents/Universität/Master Psychologie/SS 2022/Masterarbeit/Experiment/subject-5.csv",1,0,0,"a",-25,-25,"a","a",959.372499957681,959.372499957681,5,NA,404689.942200086,NA,378449.322800036,NA,405649.979799986,404380.517399986,17714.9353000568,NA,NA,6823.22620006744,NA,NA,404388.43000005,403616.528199986,NA,401138.092700043,NA,378565.746100037,7912.01920004096,48484.858400072,95512.0729000773,128731.563300011,160219.188300078,221831.020200043,378565.932100057,405650.061900029,NA,394626.285400009,403315.314100008,NA,NA,NA,397336.678700056,NA,NA,NA,NA,NA,NA,NA,378449.072499992,378557.617000071,NA,401137.965700007,NA,NA,403610.476500005,6823.36819998454,404690.062500071,6823.40069999918,404380.427399999,378447.906200076,NA,NA,7884.31590003893,NA,NA,239000.728700077,9,1207661.87469987,12,1,0,1,23,"Physik",6,3,3,3,3,3
76.9230769230769,120,92982.608930754,"l","accuracy","ta1999ma","1","o","a","1","0","0",4,1,700,"Tue Mar 28 10:14:18 2023",1,"eher leicht","speed","Experiment.osexp","Bild_s3_o_25.png",1080,"ma",1999,"ta","orangene","C:/Users/steff/Documents/Universität/Master Psychologie/SS 2022/Masterarbeit/Experiment/subject-5.csv",0,0,0,"a",-20,-20,"a","a",1112.0413999306,1112.0413999306,5,NA,407081.29630005,NA,378449.322800036,NA,408194.087399985,406771.908099996,17714.9353000568,NA,NA,6823.22620006744,NA,NA,406779.946200084,405980.91230006,NA,406097.21919999,NA,378565.746100037,7912.01920004096,48484.858400072,95512.0729000773,128731.563300011,160219.188300078,221831.020200043,378565.932100057,408194.171800045,NA,394626.285400009,405679.737000028,NA,NA,NA,397336.678700056,NA,NA,NA,NA,NA,NA,NA,378449.072499992,378557.617000071,NA,406097.084100009,NA,NA,405974.865600001,6823.36819998454,407081.402800046,6823.40069999918,406771.817400004,378447.906200076,NA,NA,7884.31590003893,NA,NA,239000.728700077,10,1208773.9160998,13,1,0,1,23,"Physik",6,3,3,3,3,3
78.5714285714286,120,86436.325542845,"l","accuracy","ta1999ma","1","b","l","1","0","0",5,1,700,"Tue Mar 28 10:14:18 2023",1,"eher leicht","speed","Experiment.osexp","Bild_s3_b_17.png",1080,"ma",1999,"ta","orangene","C:/Users/steff/Documents/Universität/Master Psychologie/SS 2022/Masterarbeit/Experiment/subject-5.csv",0,0,0,"a",-15,-15,"l","l",1334.64150002692,1334.64150002692,5,NA,409578.679900034,NA,378449.322800036,NA,410914.253700059,409269.137800089,17714.9353000568,NA,NA,6823.22620006744,NA,NA,409277.016700013,408527.46760007,NA,406097.21919999,NA,378565.746100037,7912.01920004096,48484.858400072,95512.0729000773,128731.563300011,160219.188300078,221831.020200043,378565.932100057,410914.336899994,NA,394626.285400009,405679.737000028,NA,NA,NA,408226.072699996,NA,NA,NA,NA,NA,NA,NA,378449.072499992,378557.617000071,NA,406097.084100009,NA,NA,408521.315500024,6823.36819998454,409578.804700053,6823.40069999918,409269.047199981,378447.906200076,NA,NA,7884.31590003893,NA,NA,239000.728700077,11,1210108.55759983,14,1,0,1,23,"Physik",6,3,3,3,3,3
80,120,80763.9349666579,"l","accuracy","ta1999ma","1","b","l","1","0","0",6,1,700,"Tue Mar 28 10:14:18 2023",0,"sehr leicht","speed","Experiment.osexp","Bild_s4_b_17.png",1080,"ma",1999,"ta","orangene","C:/Users/steff/Documents/Universität/Master Psychologie/SS 2022/Masterarbeit/Experiment/subject-5.csv",0,0,0,"a",-10,-10,"l","l",1350.46690003946,1350.46690003946,5,NA,412363.187000039,NA,378449.322800036,NA,413715.153899975,412053.527700016,17714.9353000568,NA,NA,6823.22620006744,NA,NA,412061.754200025,411249.508399982,NA,411360.845800024,NA,378565.746100037,7912.01920004096,48484.858400072,95512.0729000773,128731.563300011,160219.188300078,221831.020200043,378565.932100057,413715.241000056,NA,394626.285400009,405679.737000028,NA,NA,NA,410946.343100048,NA,NA,NA,NA,NA,NA,NA,378449.072499992,378557.617000071,NA,411360.726800049,NA,NA,411241.736400058,6823.36819998454,412363.286599983,6823.40069999918,412053.438600036,378447.906200076,NA,NA,7884.31590003893,NA,NA,239000.728700077,12,1211459.02449987,15,1,0,1,23,"Physik",6,3,3,3,3,3
81.25,120,75769.9323749912,"l","accuracy","ta1999ma","1","o","a","1","0","0",7,1,700,"Tue Mar 28 10:14:18 2023",0,"sehr leicht","speed","Experiment.osexp","Bild_s4_o_9.png",1080,"ma",1999,"ta","orangene","C:/Users/steff/Documents/Universität/Master Psychologie/SS 2022/Masterarbeit/Experiment/subject-5.csv",0,0,0,"a",-5,-5,"a","a",859.893499989994,859.893499989994,5,NA,415109.430700075,NA,378449.322800036,NA,415970.100900042,414799.974200083,17714.9353000568,NA,NA,6823.22620006744,NA,NA,414807.790599996,414048.661899986,NA,411360.845800024,NA,378565.746100037,7912.01920004096,48484.858400072,95512.0729000773,128731.563300011,160219.188300078,221831.020200043,378565.932100057,415970.183800091,NA,394626.285400009,405679.737000028,NA,NA,NA,413747.455500066,NA,NA,NA,NA,NA,NA,NA,378449.072499992,378557.617000071,NA,411360.726800049,NA,NA,414042.695300072,6823.36819998454,415109.532500035,6823.40069999918,414799.859100021,378447.906200076,NA,NA,7884.31590003893,NA,NA,239000.728700077,13,1212318.91799986,16,1,0,1,23,"Physik",6,3,3,3,3,3
82.3529411764706,120,71378.0006823431,"l","accuracy","ta1999ma","1","o","a","1","0","0",8,1,700,"Tue Mar 28 10:14:18 2023",0,"sehr leicht","speed","Experiment.osexp","Bild_s4_o_5.png",1080,"ma",1999,"ta","orangene","C:/Users/steff/Documents/Universität/Master Psychologie/SS 2022/Masterarbeit/Experiment/subject-5.csv",0,0,0,"a",0,0,"a","a",1107.09359997418,1107.09359997418,5,NA,417486.221300089,NA,378449.322800036,NA,418594.132700004,417176.724900026,17714.9353000568,NA,NA,6823.22620006744,NA,NA,417184.598800028,416311.42849999,NA,416432.187100057,NA,378565.746100037,7912.01920004096,48484.858400072,95512.0729000773,128731.563300011,160219.188300078,221831.020200043,378565.932100057,418594.219600083,NA,394626.285400009,405679.737000028,NA,NA,NA,416010.270999977,NA,NA,NA,NA,NA,NA,NA,378449.072499992,378557.617000071,NA,416432.058000006,NA,NA,416305.451699998,6823.36819998454,417486.327000079,6823.40069999918,417176.626100088,378447.906200076,NA,NA,7884.31590003893,NA,NA,239000.728700077,14,1213426.01159983,17,1,0,1,23,"Physik",6,3,3,3,3,3
83.3333333333333,120,67450.8954722163,"l","accuracy","ta1999ma","1","o","a","1","0","0",9,1,700,"Tue Mar 28 10:14:18 2023",0,"sehr leicht","speed","Experiment.osexp","Bild_s4_o_23.png",1080,"ma",1999,"ta","orangene","C:/Users/steff/Documents/Universität/Master Psychologie/SS 2022/Masterarbeit/Experiment/subject-5.csv",0,0,0,"a",5,5,"a","a",690.106900059618,690.106900059618,5,NA,419983.17380005,NA,378449.322800036,NA,420674.368500011,419672.890200047,17714.9353000568,NA,NA,6823.22620006744,NA,NA,419680.755999987,418927.116999985,NA,416432.187100057,NA,378565.746100037,7912.01920004096,48484.858400072,95512.0729000773,128731.563300011,160219.188300078,221831.020200043,378565.932100057,420674.458299996,NA,394626.285400009,405679.737000028,NA,NA,NA,418622.340300004,NA,NA,NA,NA,NA,NA,NA,378449.072499992,378557.617000071,NA,416432.058000006,NA,NA,418917.591299978,6823.36819998454,419983.368400019,6823.40069999918,419672.799100052,378447.906200076,NA,NA,7884.31590003893,NA,NA,239000.728700077,15,1214116.11849989,18,1,0,1,23,"Physik",6,3,3,3,3,3
84.2105263157895,120,63944.8719526286,"l","accuracy","ta1999ma","1","b","l","1","0","0",10,1,700,"Tue Mar 28 10:14:18 2023",1,"eher leicht","speed","Experiment.osexp","Bild_s3_b_5.png",1080,"ma",1999,"ta","orangene","C:/Users/steff/Documents/Universität/Master Psychologie/SS 2022/Masterarbeit/Experiment/subject-5.csv",0,0,0,"a",10,10,"l","l",836.448600050062,836.448600050062,5,NA,422108.883699984,NA,378449.322800036,NA,422946.259599994,421799.258299987,17714.9353000568,NA,NA,6823.22620006744,NA,NA,421807.142300066,421003.655500012,NA,421113.146200078,NA,378565.746100037,7912.01920004096,48484.858400072,95512.0729000773,128731.563300011,160219.188300078,221831.020200043,378565.932100057,422946.343100048,NA,394626.285400009,405679.737000028,NA,NA,NA,420702.023899998,NA,NA,NA,NA,NA,NA,NA,378449.072499992,378557.617000071,NA,421113.027199986,NA,NA,420997.585900011,6823.36819998454,422108.992599999,6823.40069999918,421799.167299992,378447.906200076,NA,NA,7884.31590003893,NA,NA,239000.728700077,16,1214952.56709994,19,1,0,1,23,"Physik",6,3,3,3,3,3
85,120,60809.0569199936,"l","accuracy","ta1999ma","1","o","a","1","0","0",11,1,700,"Tue Mar 28 10:14:18 2023",1,"eher leicht","speed","Experiment.osexp","Bild_s3_o_17.png",1080,"ma",1999,"ta","orangene","C:/Users/steff/Documents/Universität/Master Psychologie/SS 2022/Masterarbeit/Experiment/subject-5.csv",0,0,0,"a",15,15,"a","a",1228.57129992917,1228.57129992917,5,NA,424340.770700015,NA,378449.322800036,NA,425570.004599984,424030.898800003,17714.9353000568,NA,NA,6823.22620006744,NA,NA,424039.373300038,423269.84209998,NA,421113.146200078,NA,378565.746100037,7912.01920004096,48484.858400072,95512.0729000773,128731.563300011,160219.188300078,221831.020200043,378565.932100057,425570.090100053,NA,394626.285400009,405679.737000028,NA,NA,NA,422967.408900033,NA,NA,NA,NA,NA,NA,NA,378449.072499992,378557.617000071,NA,421113.027199986,NA,NA,423263.752000057,6823.36819998454,424340.866700048,6823.40069999918,424030.805099988,378447.906200076,NA,NA,7884.31590003893,NA,NA,239000.728700077,17,1216181.13839987,20,1,0,1,23,"Physik",6,3,3,3,3,3
85.7142857142857,120,57957.2185999936,"l","accuracy","ta1999ma","1","b","l","1","0","0",12,1,700,"Tue Mar 28 10:14:18 2023",2,"eher schwer","speed","Experiment.osexp","Bild_s2_b_4.png",1080,"ma",1999,"ta","orangene","C:/Users/steff/Documents/Universität/Master Psychologie/SS 2022/Masterarbeit/Experiment/subject-5.csv",0,0,0,"a",20,20,"l","l",920.452199992724,920.452199992724,5,NA,426984.783500084,NA,378449.322800036,NA,427906.078999978,426675.371600082,17714.9353000568,NA,NA,6823.22620006744,NA,NA,426683.399599977,425888.800700079,NA,425993.370700045,NA,378565.746100037,7912.01920004096,48484.858400072,95512.0729000773,128731.563300011,160219.188300078,221831.020200043,378565.932100057,427906.164200045,NA,394626.285400009,405679.737000028,NA,NA,NA,425587.684000027,NA,NA,NA,NA,NA,NA,NA,378449.072499992,378557.617000071,NA,425993.249600055,NA,NA,425882.752500009,6823.36819998454,426984.980600071,6823.40069999918,426675.280800089,378447.906200076,NA,NA,7884.31590003893,NA,NA,239000.728700077,18,1217101.59059986,21,1,0,1,23,"Physik",6,3,3,3,3,3
86.3636363636364,120,55372.9162772705,"l","accuracy","ta1999ma","1","o","a","1","0","0",13,1,700,"Tue Mar 28 10:14:18 2023",2,"eher schwer","speed","Experiment.osexp","Bild_s2_o_4.png",1080,"ma",1999,"ta","orangene","C:/Users/steff/Documents/Universität/Master Psychologie/SS 2022/Masterarbeit/Experiment/subject-5.csv",0,0,0,"a",25,25,"a","a",1102.56750008557,1102.56750008557,5,NA,429330.763100064,NA,378449.322800036,NA,430434.156900039,429021.11099998,17714.9353000568,NA,NA,6823.22620006744,NA,NA,429029.544600053,428267.110700021,NA,425993.370700045,NA,378565.746100037,7912.01920004096,48484.858400072,95512.0729000773,128731.563300011,160219.188300078,221831.020200043,378565.932100057,430434.245300014,NA,394626.285400009,405679.737000028,NA,NA,NA,427963.356900029,NA,NA,NA,NA,NA,NA,NA,378449.072499992,378557.617000071,NA,425993.249600055,NA,NA,428258.848500089,6823.36819998454,429330.860599992,6823.40069999918,429020.947900019,378447.906200076,NA,NA,7884.31590003893,NA,NA,239000.728700077,19,1218204.15809995,22,1,0,1,23,"Physik",6,3,3,3,3,3
86.9565217391304,120,53028.983239125,"l","accuracy","ta1999ma","1","o","a","1","0","0",14,1,700,"Tue Mar 28 10:14:18 2023",3,"sehr schwer","speed","Experiment.osexp","Bild_s1_o_8.png",1080,"ma",1999,"ta","orangene","C:/Users/steff/Documents/Universität/Master Psychologie/SS 2022/Masterarbeit/Experiment/subject-5.csv",0,0,0,"a",30,30,"a","a",1462.45639992412,1462.45639992412,5,NA,431866.870900034,NA,378449.322800036,NA,433330.278999987,431557.214900036,17714.9353000568,NA,NA,6823.22620006744,NA,NA,431565.146800014,430763.45050009,NA,430886.316800024,NA,378565.746100037,7912.01920004096,48484.858400072,95512.0729000773,128731.563300011,160219.188300078,221831.020200043,378565.932100057,433330.361200031,NA,394626.285400009,405679.737000028,NA,NA,NA,430462.083399994,NA,NA,NA,NA,NA,NA,NA,378449.072499992,378557.617000071,NA,430886.19790005,NA,NA,430757.401400013,6823.36819998454,431866.968800081,6823.40069999918,431557.12360004,378447.906200076,NA,NA,7884.31590003893,NA,NA,239000.728700077,20,1219666.61449987,23,1,0,1,23,"Physik",6,3,3,3,3,3
87.5,120,50891.8647083289,"l","accuracy","ta1999ma","1","b","l","1","0","0",15,1,700,"Tue Mar 28 10:14:18 2023",3,"sehr schwer","speed","Experiment.osexp","Bild_s1_b_5.png",1080,"ma",1999,"ta","orangene","C:/Users/steff/Documents/Universität/Master Psychologie/SS 2022/Masterarbeit/Experiment/subject-5.csv",0,0,0,"a",35,35,"l","l",1738.13850001898,1738.13850001898,5,NA,434695.181100047,NA,378449.322800036,NA,436434.005800053,434385.237600072,17714.9353000568,NA,NA,6823.22620006744,NA,NA,434393.350200029,433658.110200078,NA,430886.316800024,NA,378565.746100037,7912.01920004096,48484.858400072,95512.0729000773,128731.563300011,160219.188300078,221831.020200043,378565.932100057,436434.08799998,NA,394626.285400009,405679.737000028,NA,NA,NA,433356.595300022,NA,NA,NA,NA,NA,NA,NA,378449.072499992,378557.617000071,NA,430886.19790005,NA,NA,433652.036600048,6823.36819998454,434695.282300003,6823.40069999918,434385.148699977,378447.906200076,NA,NA,7884.31590003893,NA,NA,239000.728700077,21,1221404.75299989,24,1,0,1,23,"Physik",6,3,3,3,3,3
50,120,7595.95694998279,"l","speed","ta1999ma","0","o","a","0","0","0",16,2,700,"Tue Mar 28 10:14:18 2023",3,"sehr schwer","speed","Experiment.osexp","Bild_s1_o_5.png",1080,"ma",1999,"ta","orangene","C:/Users/steff/Documents/Universität/Master Psychologie/SS 2022/Masterarbeit/Experiment/subject-5.csv",0,0,1,"a",25,-10,"l","l",741.12999998033,741.12999998033,5,NA,457676.144600031,NA,378449.322800036,442017.288499977,458418.391600018,457363.444800023,17714.9353000568,NA,NA,6823.22620006744,NA,437021.993800066,457374.449299998,436792.155600036,NA,456675.41320005,NA,442222.44380007,7912.01920004096,48484.858400072,95512.0729000773,128731.563300011,160219.188300078,221831.020200043,442222.627500072,458418.513000011,NA,456674.207900069,405679.737000028,NA,NA,NA,436490.61149999,NA,NA,NA,NA,NA,NA,NA,378449.072499992,442213.417400024,NA,456675.355300074,NA,NA,436786.095699994,6823.36819998454,457676.270000055,6823.40069999918,457363.081800053,378447.906200076,NA,NA,7884.31590003893,NA,NA,239000.728700077,1,15191.9138999656,2,1,35,1,23,"Physik",6,3,3,3,3,3
66.6666666666667,120,5197.00433333249,"l","speed","ta1999ma","1","o","a","0","1","0",17,2,700,"Tue Mar 28 10:14:18 2023",3,"sehr schwer","speed","Experiment.osexp","Bild_s1_o_12.png",1080,"ma",1999,"ta","orangene","C:/Users/steff/Documents/Universität/Master Psychologie/SS 2022/Masterarbeit/Experiment/subject-5.csv",0,0,0,"a",30,-5,"a","a",399.09910003189,399.09910003189,5,NA,459762.106999988,NA,378449.322800036,442017.288499977,460162.066100049,459452.377500013,17714.9353000568,NA,NA,6823.22620006744,NA,437021.993800066,459460.548100062,458737.797599984,NA,456675.41320005,NA,442222.44380007,7912.01920004096,48484.858400072,95512.0729000773,128731.563300011,160219.188300078,221831.020200043,442222.627500072,460162.15400002,NA,456674.207900069,405679.737000028,NA,458436.585900025,NA,436490.61149999,NA,NA,NA,NA,NA,NA,NA,378449.072499992,442213.417400024,NA,456675.355300074,NA,NA,458731.705800048,6823.36819998454,459762.295500026,6823.40069999918,459452.286200016,378447.906200076,NA,NA,7884.31590003893,NA,NA,239000.728700077,2,15591.0129999975,3,1,35,1,23,"Physik",6,3,3,3,3,3
75,120,4000.25167499552,"l","speed","ta1999ma","1","o","a","0","1","0",18,2,700,"Tue Mar 28 10:14:18 2023",2,"eher schwer","speed","Experiment.osexp","Bild_s2_o_18.png",1080,"ma",1999,"ta","orangene","C:/Users/steff/Documents/Universität/Master Psychologie/SS 2022/Masterarbeit/Experiment/subject-5.csv",0,0,0,"a",35,0,"a","a",409.993699984625,409.993699984625,5,NA,461799.185100012,NA,378449.322800036,442017.288499977,462210.212700069,461483.832000056,17714.9353000568,NA,NA,6823.22620006744,NA,437021.993800066,461491.955299978,460498.038400081,NA,460621.109800064,NA,442222.44380007,7912.01920004096,48484.858400072,95512.0729000773,128731.563300011,160219.188300078,221831.020200043,442222.627500072,462210.300100036,NA,456674.207900069,405679.737000028,NA,458436.585900025,NA,436490.61149999,460196.558900061,NA,NA,NA,NA,NA,NA,378449.072499992,442213.417400024,NA,460620.985500049,NA,NA,460491.545099998,6823.36819998454,461799.416300026,6823.40069999918,461483.70490002,378447.906200076,NA,NA,7884.31590003893,NA,NA,239000.728700077,3,16001.0066999821,4,1,35,1,23,"Physik",6,3,3,3,3,3
80,120,3301.08485999517,"l","speed","ta1999ma","1","o","a","0","1","0",19,2,700,"Tue Mar 28 10:14:18 2023",2,"eher schwer","speed","Experiment.osexp","Bild_s2_o_5.png",1080,"ma",1999,"ta","orangene","C:/Users/steff/Documents/Universität/Master Psychologie/SS 2022/Masterarbeit/Experiment/subject-5.csv",0,0,0,"a",40,5,"a","a",504.417599993758,504.417599993758,5,NA,463656.815299997,NA,378449.322800036,442017.288499977,464162.332699983,463347.357699997,17714.9353000568,NA,NA,6823.22620006744,NA,437021.993800066,463355.189300026,462541.591400048,NA,460621.109800064,NA,442222.44380007,7912.01920004096,48484.858400072,95512.0729000773,128731.563300011,160219.188300078,221831.020200043,442222.627500072,464162.424199982,NA,456674.207900069,405679.737000028,NA,458436.585900025,NA,436490.61149999,462240.129400045,NA,NA,NA,NA,NA,NA,378449.072499992,442213.417400024,NA,460620.985500049,NA,NA,462535.518500023,6823.36819998454,463656.994200079,6823.40069999918,463347.268900019,378447.906200076,NA,NA,7884.31590003893,NA,NA,239000.728700077,4,16505.4242999759,5,1,35,1,23,"Physik",6,3,3,3,3,3
66.6666666666667,120,2853.1508333399,"l","speed","ta1999ma","0","o","a","0","0","0",20,2,700,"Tue Mar 28 10:14:18 2023",1,"eher leicht","speed","Experiment.osexp","Bild_s3_o_13.png",1080,"ma",1999,"ta","orangene","C:/Users/steff/Documents/Universität/Master Psychologie/SS 2022/Masterarbeit/Experiment/subject-5.csv",0,1,0,"a",30,-5,"l","l",613.480700063519,613.480700063519,5,NA,465595.69039999,NA,378449.322800036,442017.288499977,466210.079899989,465286.097700009,17714.9353000568,NA,NA,6823.22620006744,NA,437021.993800066,465294.255600078,464494.03400009,NA,464604.117300012,NA,442222.44380007,7912.01920004096,48484.858400072,95512.0729000773,128731.563300011,160219.188300078,221831.020200043,442222.627500072,466210.190400016,NA,456674.207900069,405679.737000028,NA,458436.585900025,NA,436490.61149999,464192.626000033,NA,NA,NA,NA,NA,NA,378449.072499992,442213.417400024,NA,464603.999200044,NA,NA,464488.003200036,6823.36819998454,465595.906000002,6823.40069999918,465286.007700022,378447.906200076,NA,NA,7884.31590003893,NA,NA,239000.728700077,4,17118.9050000394,6,1,35,1,23,"Physik",6,3,3,3,3,3
71.4285714285714,120,2523.00290000026,"l","speed","ta1999ma","1","o","a","0","1","0",21,2,700,"Tue Mar 28 10:14:18 2023",1,"eher leicht","speed","Experiment.osexp","Bild_s3_o_11.png",1080,"ma",1999,"ta","orangene","C:/Users/steff/Documents/Universität/Master Psychologie/SS 2022/Masterarbeit/Experiment/subject-5.csv",0,0,0,"a",35,0,"a","a",542.115299962461,542.115299962461,5,NA,467651.174300001,NA,378449.322800036,442017.288499977,468194.373600069,467341.462200042,17714.9353000568,NA,NA,6823.22620006744,NA,437021.993800066,467349.446200067,466541.439700057,NA,464604.117300012,NA,442222.44380007,7912.01920004096,48484.858400072,95512.0729000773,128731.563300011,160219.188300078,221831.020200043,442222.627500072,468194.480300066,NA,456674.207900069,405679.737000028,NA,458436.585900025,466239.670500043,436490.61149999,464192.626000033,NA,NA,NA,NA,NA,NA,378449.072499992,442213.417400024,NA,464603.999200044,NA,NA,466535.451199976,6823.36819998454,467651.276100078,6823.40069999918,467341.369200032,378447.906200076,NA,NA,7884.31590003893,NA,NA,239000.728700077,5,17661.0203000018,7,1,35,1,23,"Physik",6,3,3,3,3,3
75,120,2269.85546250944,"l","speed","ta1999ma","1","o","a","0","1","0",22,2,700,"Tue Mar 28 10:14:18 2023",0,"sehr leicht","speed","Experiment.osexp","Bild_s4_o_11.png",1080,"ma",1999,"ta","orangene","C:/Users/steff/Documents/Universität/Master Psychologie/SS 2022/Masterarbeit/Experiment/subject-5.csv",0,0,0,"a",40,5,"a","a",497.823400073685,497.823400073685,5,NA,469615.486100083,NA,378449.322800036,442017.288499977,470114.167800057,469306.04080006,17714.9353000568,NA,NA,6823.22620006744,NA,437021.993800066,469314.158600057,468511.76490006,NA,468609.295299975,NA,442222.44380007,7912.01920004096,48484.858400072,95512.0729000773,128731.563300011,160219.188300078,221831.020200043,442222.627500072,470114.255400025,NA,456674.207900069,405679.737000028,NA,458436.585900025,466239.670500043,436490.61149999,468210.412100074,NA,NA,NA,NA,NA,NA,378449.072499992,442213.417400024,NA,468609.055800014,NA,NA,468505.561500089,6823.36819998454,469615.581099992,6823.40069999918,469305.950000067,378447.906200076,NA,NA,7884.31590003893,NA,NA,239000.728700077,6,18158.8437000755,8,1,35,1,23,"Physik",6,3,3,3,3,3
77.7777777777778,120,2076.8074777831,"l","speed","ta1999ma","1","b","l","0","1","0",23,2,700,"Tue Mar 28 10:14:18 2023",0,"sehr leicht","speed","Experiment.osexp","Bild_s4_b_16.png",1080,"ma",1999,"ta","orangene","C:/Users/steff/Documents/Universität/Master Psychologie/SS 2022/Masterarbeit/Experiment/subject-5.csv",0,0,0,"a",45,10,"l","l",532.42359997239,532.42359997239,5,NA,471564.861300052,NA,378449.322800036,442017.288499977,472098.064600024,471254.029500065,17714.9353000568,NA,NA,6823.22620006744,NA,437021.993800066,471262.538300012,470431.961000082,NA,468609.295299975,NA,442222.44380007,7912.01920004096,48484.858400072,95512.0729000773,128731.563300011,160219.188300078,221831.020200043,442222.627500072,472098.152199993,NA,456674.207900069,405679.737000028,NA,458436.585900025,466239.670500043,436490.61149999,470130.633600056,NA,NA,NA,NA,NA,NA,378449.072499992,442213.417400024,NA,468609.055800014,NA,NA,470426.039400045,6823.36819998454,471564.966200036,6823.40069999918,471253.912999993,378447.906200076,NA,NA,7884.31590003893,NA,NA,239000.728700077,7,18691.2673000479,9,1,35,1,23,"Physik",6,3,3,3,3,3
80,120,1913.69750000304,"l","speed","ta1999ma","1","o","a","0","1","0",24,2,700,"Tue Mar 28 10:14:18 2023",0,"sehr leicht","speed","Experiment.osexp","Bild_s4_o_3.png",1080,"ma",1999,"ta","orangene","C:/Users/steff/Documents/Universität/Master Psychologie/SS 2022/Masterarbeit/Experiment/subject-5.csv",0,0,0,"a",50,15,"a","a",445.707699982449,445.707699982449,5,NA,473571.499800077,NA,378449.322800036,442017.288499977,474018.190299976,473260.264400044,17714.9353000568,NA,NA,6823.22620006744,NA,437021.993800066,473268.276900053,472418.833200005,NA,472528.275500052,NA,442222.44380007,7912.01920004096,48484.858400072,95512.0729000773,128731.563300011,160219.188300078,221831.020200043,442222.627500072,474018.28650001,NA,456674.207900069,405679.737000028,NA,458436.585900025,466239.670500043,436490.61149999,472114.153300063,NA,NA,NA,NA,NA,NA,378449.072499992,442213.417400024,NA,472528.171400074,NA,NA,472409.548600088,6823.36819998454,473571.67980005,6823.40069999918,473260.159700061,378447.906200076,NA,NA,7884.31590003893,NA,NA,239000.728700077,8,19136.9750000304,10,1,35,1,23,"Physik",6,3,3,3,3,3
72.7272727272727,120,1786.80810001044,"l","speed","ta1999ma","0","o","a","0","0","0",25,2,700,"Tue Mar 28 10:14:18 2023",0,"sehr leicht","speed","Experiment.osexp","Bild_s4_o_6.png",1080,"ma",1999,"ta","orangene","C:/Users/steff/Documents/Universität/Master Psychologie/SS 2022/Masterarbeit/Experiment/subject-5.csv",0,1,0,"a",40,5,"l","l",517.914100084454,517.914100084454,5,NA,475467.324200086,NA,378449.322800036,442017.288499977,475986.238999991,475158.088700031,17714.9353000568,NA,NA,6823.22620006744,NA,437021.993800066,475166.104900069,474333.137399983,NA,472528.275500052,NA,442222.44380007,7912.01920004096,48484.858400072,95512.0729000773,128731.563300011,160219.188300078,221831.020200043,442222.627500072,475986.375299981,NA,456674.207900069,405679.737000028,NA,458436.585900025,466239.670500043,436490.61149999,474031.554999994,NA,NA,NA,NA,NA,NA,378449.072499992,442213.417400024,NA,472528.171400074,NA,NA,474326.955800061,6823.36819998454,475467.463999987,6823.40069999918,475157.989999978,378447.906200076,NA,NA,7884.31590003893,NA,NA,239000.728700077,8,19654.8891001148,11,1,35,1,23,"Physik",6,3,3,3,3,3
66.6666666666667,120,1696.17130834376,"l","speed","ta1999ma","0","o","a","0","0","0",26,2,700,"Tue Mar 28 10:14:18 2023",1,"eher leicht","speed","Experiment.osexp","Bild_s3_o_15.png",1080,"ma",1999,"ta","orangene","C:/Users/steff/Documents/Universität/Master Psychologie/SS 2022/Masterarbeit/Experiment/subject-5.csv",0,1,0,"a",30,-5,"l","l",699.166600010358,699.166600010358,5,NA,477446.103400085,NA,378449.322800036,442017.288499977,478146.137900068,477136.391000007,17714.9353000568,NA,NA,6823.22620006744,NA,437021.993800066,477144.338999991,476307.569800061,NA,476431.311900029,NA,442222.44380007,7912.01920004096,48484.858400072,95512.0729000773,128731.563300011,160219.188300078,221831.020200043,442222.627500072,478146.248499979,NA,456674.207900069,405679.737000028,NA,458436.585900025,476005.628300016,436490.61149999,474031.554999994,NA,NA,NA,NA,NA,NA,378449.072499992,442213.417400024,NA,476431.186200003,NA,NA,476300.898600021,6823.36819998454,477446.25909999,6823.40069999918,477136.291900068,378447.906200076,NA,NA,7884.31590003893,NA,NA,239000.728700077,8,20354.0557001252,12,1,35,1,23,"Physik",6,3,3,3,3,3
69.2307692307692,120,1604.3756153936,"l","speed","ta1999ma","1","b","l","0","1","0",27,2,700,"Tue Mar 28 10:14:18 2023",1,"eher leicht","speed","Experiment.osexp","Bild_s3_b_24.png",1080,"ma",1999,"ta","orangene","C:/Users/steff/Documents/Universität/Master Psychologie/SS 2022/Masterarbeit/Experiment/subject-5.csv",0,0,0,"a",35,0,"l","l",502.827299991623,502.827299991623,5,NA,479514.456000063,NA,378449.322800036,442017.288499977,480018.135200022,479204.948400031,17714.9353000568,NA,NA,6823.22620006744,NA,437021.993800066,479213.098800043,478459.446500055,NA,476431.311900029,NA,442222.44380007,7912.01920004096,48484.858400072,95512.0729000773,128731.563300011,160219.188300078,221831.020200043,442222.627500072,480018.223699997,NA,456674.207900069,405679.737000028,NA,458436.585900025,478158.109900076,436490.61149999,474031.554999994,NA,NA,NA,NA,NA,NA,378449.072499992,442213.417400024,NA,476431.186200003,NA,NA,478453.374200035,6823.36819998454,479514.553199988,6823.40069999918,479204.795800033,378447.906200076,NA,NA,7884.31590003893,NA,NA,239000.728700077,9,20856.8830001168,13,1,35,1,23,"Physik",6,3,3,3,3,3
71.4285714285714,120,1526.39787144394,"l","speed","ta1999ma","1","b","l","0","1","0",28,2,700,"Tue Mar 28 10:14:18 2023",2,"eher schwer","speed","Experiment.osexp","Bild_s2_b_18.png",1080,"ma",1999,"ta","orangene","C:/Users/steff/Documents/Universität/Master Psychologie/SS 2022/Masterarbeit/Experiment/subject-5.csv",0,0,0,"a",40,5,"l","l",512.687200098298,512.687200098298,5,NA,481520.591399982,NA,378449.322800036,442017.288499977,482034.081600024,481210.926400032,17714.9353000568,NA,NA,6823.22620006744,NA,437021.993800066,481219.017000054,480335.620000027,NA,480457.959200023,NA,442222.44380007,7912.01920004096,48484.858400072,95512.0729000773,128731.563300011,160219.188300078,221831.020200043,442222.627500072,482034.175000037,NA,456674.207900069,405679.737000028,NA,458436.585900025,478158.109900076,436490.61149999,480034.072200069,NA,NA,NA,NA,NA,NA,378449.072499992,442213.417400024,NA,480457.834600005,NA,NA,480329.458100023,6823.36819998454,481520.69949999,6823.40069999918,481210.825300077,378447.906200076,NA,NA,7884.31590003893,NA,NA,239000.728700077,10,21369.5702002151,14,1,35,1,23,"Physik",6,3,3,3,3,3
73.3333333333333,120,1461.36151334892,"l","speed","ta1999ma","1","b","l","0","1","0",29,2,700,"Tue Mar 28 10:14:18 2023",2,"eher schwer","speed","Experiment.osexp","Bild_s2_b_25.png",1080,"ma",1999,"ta","orangene","C:/Users/steff/Documents/Universität/Master Psychologie/SS 2022/Masterarbeit/Experiment/subject-5.csv",0,0,0,"a",45,10,"l","l",550.852500018664,550.852500018664,5,NA,483466.393899987,NA,378449.322800036,442017.288499977,484018.323000055,483156.945600058,17714.9353000568,NA,NA,6823.22620006744,NA,437021.993800066,483164.867700078,482348.392200074,NA,480457.959200023,NA,442222.44380007,7912.01920004096,48484.858400072,95512.0729000773,128731.563300011,160219.188300078,221831.020200043,442222.627500072,484018.417600077,NA,456674.207900069,405679.737000028,NA,458436.585900025,478158.109900076,436490.61149999,482047.100300086,NA,NA,NA,NA,NA,NA,378449.072499992,442213.417400024,NA,480457.834600005,NA,NA,482342.380500049,6823.36819998454,483466.490700026,6823.40069999918,483156.850800035,378447.906200076,NA,NA,7884.31590003893,NA,NA,239000.728700077,11,21920.4227002338,15,1,35,1,23,"Physik",6,3,3,3,3,3
68.75,120,1398.7771437678,"l","speed","ta1999ma","0","o","a","0","0","0",30,2,700,"Tue Mar 28 10:14:18 2023",3,"sehr schwer","speed","Experiment.osexp","Bild_s1_o_21.png",1080,"ma",1999,"ta","orangene","C:/Users/steff/Documents/Universität/Master Psychologie/SS 2022/Masterarbeit/Experiment/subject-5.csv",0,1,0,"a",35,0,"l","l",460.011600051075,460.011600051075,5,NA,485493.109400035,NA,378449.322800036,442017.288499977,485954.162999988,485183.043400059,17714.9353000568,NA,NA,6823.22620006744,NA,437021.993800066,485191.353000002,484337.687800056,NA,484450.397800072,NA,442222.44380007,7912.01920004096,48484.858400072,95512.0729000773,128731.563300011,160219.188300078,221831.020200043,442222.627500072,485954.279000056,NA,456674.207900069,405679.737000028,NA,458436.585900025,478158.109900076,436490.61149999,484036.132700043,NA,NA,NA,NA,NA,NA,378449.072499992,442213.417400024,NA,484450.27390006,NA,NA,484331.459900015,6823.36819998454,485493.332499987,6823.40069999918,485182.939000078,378447.906200076,NA,NA,7884.31590003893,NA,NA,239000.728700077,11,22380.4343002848,16,1,35,1,23,"Physik",6,3,3,3,3,3
70.5882352941177,120,1362.4245353139,"l","speed","ta1999ma","1","b","l","0","0","1",31,2,700,"Tue Mar 28 10:14:18 2023",3,"sehr schwer","speed","Experiment.osexp","Bild_s1_b_5.png",1080,"ma",1999,"ta","orangene","C:/Users/steff/Documents/Universität/Master Psychologie/SS 2022/Masterarbeit/Experiment/subject-5.csv",0,0,0,"a",25,-10,"l","l",780.782800051384,780.782800051384,5,NA,487364.342799992,NA,378449.322800036,442017.288499977,488146.230300074,487054.672099999,17714.9353000568,NA,NA,6823.22620006744,NA,437021.993800066,487062.694800086,486287.558700074,NA,484450.397800072,NA,442222.44380007,7912.01920004096,48484.858400072,95512.0729000773,128731.563300011,160219.188300078,221831.020200043,442222.627500072,488146.345900022,NA,456674.207900069,405679.737000028,NA,458436.585900025,485985.918599996,436490.61149999,484036.132700043,NA,NA,NA,NA,NA,NA,378449.072499992,442213.417400024,NA,484450.27390006,NA,NA,486281.293099979,6823.36819998454,487364.586799988,6823.40069999918,487054.579499993,378447.906200076,NA,NA,7884.31590003893,NA,NA,239000.728700077,12,23161.2171003362,17,1,35,1,23,"Physik",6,3,3,3,3,3
100,120,45610.2618332952,"l","speed","ta1999ma","1","b","l","0","0","1",32,3,700,"Tue Mar 28 10:14:18 2023",1,"eher leicht","speed","Experiment.osexp","Bild_s3_b_22.png",1080,"ma",1999,"ta","orangene","C:/Users/steff/Documents/Universität/Master Psychologie/SS 2022/Masterarbeit/Experiment/subject-5.csv",0,0,0,"a",-10,-10,"l","l",772.197599988431,772.197599988431,5,NA,579404.989900067,569155.166700017,378449.322800036,493699.693000061,580177.897099988,579096.03190003,17714.9353000568,493814.208100084,NA,6823.22620006744,NA,488704.474200029,579103.659200016,488473.533199984,578467.042700038,484450.397800072,569273.218000075,442222.44380007,7912.01920004096,48484.858400072,95512.0729000773,128731.563300011,160219.188300078,221831.020200043,569273.443800048,580178.019199986,578466.070200084,456674.207900069,405679.737000028,488171.990800067,458436.585900025,485985.918599996,436490.61149999,484036.132700043,NA,NA,NA,NA,NA,569265.182400006,378449.072499992,442213.417400024,578466.990299989,484450.27390006,569155.091100023,569090.249600005,488467.454300029,6823.36819998454,579405.092800036,6823.40069999918,579095.807300066,378447.906200076,493807.405200088,493751.189999981,7884.31590003893,NA,NA,239000.728700077,3,136830.785499886,3,0,25,1,23,"Physik",6,3,3,3,3,3
75,120,34346.3833749702,"l","speed","ta1999ma","0","o","a","0","0","0",33,3,700,"Tue Mar 28 10:14:18 2023",1,"eher leicht","speed","Experiment.osexp","Bild_s3_o_13.png",1080,"ma",1999,"ta","orangene","C:/Users/steff/Documents/Universität/Master Psychologie/SS 2022/Masterarbeit/Experiment/subject-5.csv",0,1,0,"a",-20,-20,"l","l",554.747999995016,554.747999995016,5,NA,581574.451400083,569155.166700017,378449.322800036,493699.693000061,582130.073899985,581265.079500037,17714.9353000568,493814.208100084,NA,6823.22620006744,NA,488704.474200029,581273.24140002,580507.497800048,578467.042700038,484450.397800072,569273.218000075,442222.44380007,7912.01920004096,48484.858400072,95512.0729000773,128731.563300011,160219.188300078,221831.020200043,569273.443800048,582130.187300034,578466.070200084,456674.207900069,405679.737000028,580205.76650009,458436.585900025,485985.918599996,436490.61149999,484036.132700043,NA,NA,NA,NA,NA,569265.182400006,378449.072499992,442213.417400024,578466.990299989,484450.27390006,569155.091100023,569090.249600005,580500.956100062,6823.36819998454,581574.549900019,6823.40069999918,581264.989600051,378447.906200076,493807.405200088,493751.189999981,7884.31590003893,NA,NA,239000.728700077,3,137385.533499881,4,0,25,1,23,"Physik",6,3,3,3,3,3
80,120,27579.2410599766,"l","speed","ta1999ma","1","o","a","0","1","0",34,3,700,"Tue Mar 28 10:14:18 2023",1,"eher leicht","speed","Experiment.osexp","Bild_s3_o_23.png",1080,"ma",1999,"ta","orangene","C:/Users/steff/Documents/Universität/Master Psychologie/SS 2022/Masterarbeit/Experiment/subject-5.csv",0,0,0,"a",-15,-15,"a","a",510.671800002456,510.671800002456,5,NA,583522.422500071,569155.166700017,378449.322800036,493699.693000061,584034.072600072,583212.891999981,17714.9353000568,493814.208100084,NA,6823.22620006744,NA,488704.474200029,583220.943200053,582446.500300081,578467.042700038,484450.397800072,569273.218000075,442222.44380007,7912.01920004096,48484.858400072,95512.0729000773,128731.563300011,160219.188300078,221831.020200043,569273.443800048,584034.16010004,578466.070200084,456674.207900069,405679.737000028,580205.76650009,458436.585900025,582145.356800058,436490.61149999,484036.132700043,NA,NA,NA,NA,NA,569265.182400006,378449.072499992,442213.417400024,578466.990299989,484450.27390006,569155.091100023,569090.249600005,582440.307400073,6823.36819998454,583522.632000037,6823.40069999918,583212.800399982,378447.906200076,493807.405200088,493751.189999981,7884.31590003893,NA,NA,239000.728700077,4,137896.205299883,5,0,25,1,23,"Physik",6,3,3,3,3,3
83.3333333333333,120,23073.2673999931,"l","speed","ta1999ma","1","o","a","0","1","0",35,3,700,"Tue Mar 28 10:14:18 2023",1,"eher leicht","speed","Experiment.osexp","Bild_s3_o_15.png",1080,"ma",1999,"ta","orangene","C:/Users/steff/Documents/Universität/Master Psychologie/SS 2022/Masterarbeit/Experiment/subject-5.csv",0,0,0,"a",-10,-10,"a","a",543.399100075476,543.399100075476,5,NA,585441.776200081,569155.166700017,378449.322800036,493699.693000061,585986.131199985,585131.806500023,17714.9353000568,493814.208100084,NA,6823.22620006744,NA,488704.474200029,585139.939800021,584362.688200083,578467.042700038,484450.397800072,569273.218000075,442222.44380007,7912.01920004096,48484.858400072,95512.0729000773,128731.563300011,160219.188300078,221831.020200043,569273.443800048,585986.222999985,578466.070200084,456674.207900069,405679.737000028,580205.76650009,458436.585900025,582145.356800058,436490.61149999,584061.622000067,NA,NA,NA,NA,NA,569265.182400006,378449.072499992,442213.417400024,578466.990299989,484450.27390006,569155.091100023,569090.249600005,584356.635299977,6823.36819998454,585441.888100002,6823.40069999918,585131.703500054,378447.906200076,493807.405200088,493751.189999981,7884.31590003893,NA,NA,239000.728700077,5,138439.604399959,6,0,25,1,23,"Physik",6,3,3,3,3,3
85.7142857142857,120,19839.4741428451,"l","speed","ta1999ma","1","b","l","0","1","0",36,3,700,"Tue Mar 28 10:14:18 2023",1,"eher leicht","speed","Experiment.osexp","Bild_s3_b_1.png",1080,"ma",1999,"ta","orangene","C:/Users/steff/Documents/Universität/Master Psychologie/SS 2022/Masterarbeit/Experiment/subject-5.csv",0,0,0,"a",-5,-5,"l","l",436.714599956758,436.714599956758,5,NA,587372.466700035,569155.166700017,378449.322800036,493699.693000061,587809.991099988,587062.602600083,17714.9353000568,493814.208100084,NA,6823.22620006744,NA,488704.474200029,587070.45400003,586319.195399992,578467.042700038,484450.397800072,569273.218000075,442222.44380007,7912.01920004096,48484.858400072,95512.0729000773,128731.563300011,160219.188300078,221831.020200043,569273.443800048,587810.07960008,578466.070200084,456674.207900069,405679.737000028,580205.76650009,458436.585900025,582145.356800058,436490.61149999,586017.525100033,NA,NA,NA,NA,NA,569265.182400006,378449.072499992,442213.417400024,578466.990299989,484450.27390006,569155.091100023,569090.249600005,586312.7752,6823.36819998454,587372.572200024,6823.40069999918,587062.513099983,378447.906200076,493807.405200088,493751.189999981,7884.31590003893,NA,NA,239000.728700077,6,138876.318999915,7,0,25,1,23,"Physik",6,3,3,3,3,3
87.5,120,17425.4583374859,"l","speed","ta1999ma","1","o","a","0","1","0",37,3,700,"Tue Mar 28 10:14:18 2023",1,"eher leicht","speed","Experiment.osexp","Bild_s3_o_20.png",1080,"ma",1999,"ta","orangene","C:/Users/steff/Documents/Universität/Master Psychologie/SS 2022/Masterarbeit/Experiment/subject-5.csv",0,0,0,"a",0,0,"a","a",527.34769997187,527.34769997187,5,NA,589185.706700082,569155.166700017,378449.322800036,493699.693000061,589714.01320002,588875.226299977,17714.9353000568,493814.208100084,NA,6823.22620006744,NA,488704.474200029,588883.36950005,588126.718000043,578467.042700038,484450.397800072,569273.218000075,442222.44380007,7912.01920004096,48484.858400072,95512.0729000773,128731.563300011,160219.188300078,221831.020200043,569273.443800048,589714.10620003,578466.070200084,456674.207900069,405679.737000028,580205.76650009,458436.585900025,582145.356800058,436490.61149999,587825.758600025,NA,NA,NA,NA,NA,569265.182400006,378449.072499992,442213.417400024,578466.990299989,484450.27390006,569155.091100023,569090.249600005,588120.699800085,6823.36819998454,589185.935400077,6823.40069999918,588875.134499976,378447.906200076,493807.405200088,493751.189999981,7884.31590003893,NA,NA,239000.728700077,7,139403.666699887,8,0,25,1,23,"Physik",6,3,3,3,3,3
88.8888888888889,120,15540.4694333233,"l","speed","ta1999ma","1","b","l","0","1","0",38,3,700,"Tue Mar 28 10:14:18 2023",1,"eher leicht","speed","Experiment.osexp","Bild_s3_b_11.png",1080,"ma",1999,"ta","orangene","C:/Users/steff/Documents/Universität/Master Psychologie/SS 2022/Masterarbeit/Experiment/subject-5.csv",0,0,0,"a",5,5,"l","l",460.558200022206,460.558200022206,5,NA,591092.596300063,569155.166700017,378449.322800036,493699.693000061,591554.201400024,590783.345200005,17714.9353000568,493814.208100084,NA,6823.22620006744,NA,488704.474200029,590791.100900038,590041.820300044,578467.042700038,484450.397800072,569273.218000075,442222.44380007,7912.01920004096,48484.858400072,95512.0729000773,128731.563300011,160219.188300078,221831.020200043,569273.443800048,591554.289699998,578466.070200084,456674.207900069,405679.737000028,580205.76650009,458436.585900025,582145.356800058,436490.61149999,589740.708800033,NA,NA,NA,NA,NA,569265.182400006,378449.072499992,442213.417400024,578466.990299989,484450.27390006,569155.091100023,569090.249600005,590035.833699978,6823.36819998454,591092.732300051,6823.40069999918,590783.254200011,378447.906200076,493807.405200088,493751.189999981,7884.31590003893,NA,NA,239000.728700077,8,139864.224899909,9,0,25,1,23,"Physik",6,3,3,3,3,3
90,120,14042.2885399894,"l","speed","ta1999ma","1","b","l","0","1","0",39,3,700,"Tue Mar 28 10:14:18 2023",1,"eher leicht","speed","Experiment.osexp","Bild_s3_b_21.png",1080,"ma",1999,"ta","orangene","C:/Users/steff/Documents/Universität/Master Psychologie/SS 2022/Masterarbeit/Experiment/subject-5.csv",0,0,0,"a",10,10,"l","l",558.660499984398,558.660499984398,5,NA,592978.518199991,569155.166700017,378449.322800036,493699.693000061,593538.347800029,592668.907099986,17714.9353000568,493814.208100084,NA,6823.22620006744,NA,488704.474200029,592677.110900055,591885.07040008,578467.042700038,484450.397800072,569273.218000075,442222.44380007,7912.01920004096,48484.858400072,95512.0729000773,128731.563300011,160219.188300078,221831.020200043,569273.443800048,593538.475700072,578466.070200084,456674.207900069,405679.737000028,580205.76650009,458436.585900025,582145.356800058,436490.61149999,591583.561800071,NA,NA,NA,NA,NA,569265.182400006,378449.072499992,442213.417400024,578466.990299989,484450.27390006,569155.091100023,569090.249600005,591879.018799984,6823.36819998454,592978.616200038,6823.40069999918,592668.81250008,378447.906200076,493807.405200088,493751.189999981,7884.31590003893,NA,NA,239000.728700077,9,140422.885399894,10,0,25,1,23,"Physik",6,3,3,3,3,3
90.9090909090909,120,12800.8117999945,"l","speed","ta1999ma","1","o","a","0","1","0",40,3,700,"Tue Mar 28 10:14:18 2023",0,"sehr leicht","speed","Experiment.osexp","Bild_s4_o_3.png",1080,"ma",1999,"ta","orangene","C:/Users/steff/Documents/Universität/Master Psychologie/SS 2022/Masterarbeit/Experiment/subject-5.csv",0,0,0,"a",15,15,"a","a",386.044400045648,386.044400045648,5,NA,595055.122500053,569155.166700017,378449.322800036,493699.693000061,595442.009699997,594744.158999994,17714.9353000568,493814.208100084,NA,6823.22620006744,NA,488704.474200029,594753.285299987,593874.423800036,593988.524200046,484450.397800072,569273.218000075,442222.44380007,7912.01920004096,48484.858400072,95512.0729000773,128731.563300011,160219.188300078,221831.020200043,569273.443800048,595442.100299988,578466.070200084,456674.207900069,405679.737000028,580205.76650009,458436.585900025,582145.356800058,436490.61149999,593573.220700026,NA,NA,NA,NA,NA,569265.182400006,378449.072499992,442213.417400024,593988.390600076,484450.27390006,569155.091100023,569090.249600005,593868.1201,6823.36819998454,595055.224700016,6823.40069999918,594744.04000002,378447.906200076,493807.405200088,493751.189999981,7884.31590003893,NA,NA,239000.728700077,10,140808.92979994,11,0,25,1,23,"Physik",6,3,3,3,3,3
91.6666666666667,120,11762.095741656,"l","speed","ta1999ma","1","o","a","0","1","0",41,3,700,"Tue Mar 28 10:14:18 2023",0,"sehr leicht","speed","Experiment.osexp","Bild_s4_o_15.png",1080,"ma",1999,"ta","orangene","C:/Users/steff/Documents/Universität/Master Psychologie/SS 2022/Masterarbeit/Experiment/subject-5.csv",0,0,0,"a",20,20,"a","a",336.21909993235,336.21909993235,5,NA,596944.959199987,569155.166700017,378449.322800036,493699.693000061,597282.034000033,596634.630299988,17714.9353000568,493814.208100084,NA,6823.22620006744,NA,488704.474200029,596643.199900049,595760.275400011,593988.524200046,484450.397800072,569273.218000075,442222.44380007,7912.01920004096,48484.858400072,95512.0729000773,128731.563300011,160219.188300078,221831.020200043,569273.443800048,597282.133599976,578466.070200084,456674.207900069,405679.737000028,580205.76650009,458436.585900025,582145.356800058,436490.61149999,595459.079600056,NA,NA,NA,NA,NA,569265.182400006,378449.072499992,442213.417400024,593988.390600076,484450.27390006,569155.091100023,569090.249600005,595754.0821,6823.36819998454,596945.063000079,6823.40069999918,596634.520400083,378447.906200076,493807.405200088,493751.189999981,7884.31590003893,NA,NA,239000.728700077,11,141145.148899872,12,0,25,1,23,"Physik",6,3,3,3,3,3
92.3076923076923,120,10888.7144769094,"l","speed","ta1999ma","1","b","l","0","1","0",42,3,700,"Tue Mar 28 10:14:18 2023",0,"sehr leicht","speed","Experiment.osexp","Bild_s4_b_7.png",1080,"ma",1999,"ta","orangene","C:/Users/steff/Documents/Universität/Master Psychologie/SS 2022/Masterarbeit/Experiment/subject-5.csv",0,0,0,"a",25,25,"l","l",408.139299950562,408.139299950562,5,NA,598681.019900017,569155.166700017,378449.322800036,493699.693000061,599090.463100001,598369.433099986,17714.9353000568,493814.208100084,NA,6823.22620006744,NA,488704.474200029,598379.07600007,597614.570599981,593988.524200046,484450.397800072,569273.218000075,442222.44380007,7912.01920004096,48484.858400072,95512.0729000773,128731.563300011,160219.188300078,221831.020200043,569273.443800048,599090.578800067,578466.070200084,456674.207900069,405679.737000028,580205.76650009,458436.585900025,582145.356800058,436490.61149999,597313.177400036,NA,NA,NA,NA,NA,569265.182400006,378449.072499992,442213.417400024,593988.390600076,484450.27390006,569155.091100023,569090.249600005,597608.471799991,6823.36819998454,598681.144700036,6823.40069999918,598369.323600084,378447.906200076,493807.405200088,493751.189999981,7884.31590003893,NA,NA,239000.728700077,12,141553.288199822,13,0,25,1,23,"Physik",6,3,3,3,3,3
92.8571428571429,120,10138.6949499886,"l","speed","ta1999ma","1","b","l","0","1","0",43,3,700,"Tue Mar 28 10:14:18 2023",0,"sehr leicht","speed","Experiment.osexp","Bild_s4_b_18.png",1080,"ma",1999,"ta","orangene","C:/Users/steff/Documents/Universität/Master Psychologie/SS 2022/Masterarbeit/Experiment/subject-5.csv",0,0,0,"a",30,30,"l","l",388.441100018099,388.441100018099,5,NA,600476.560499985,569155.166700017,378449.322800036,493699.693000061,600865.981100011,600166.684400057,17714.9353000568,493814.208100084,NA,6823.22620006744,NA,488704.474200029,600174.799400032,599409.374900046,593988.524200046,484450.397800072,569273.218000075,442222.44380007,7912.01920004096,48484.858400072,95512.0729000773,128731.563300011,160219.188300078,221831.020200043,569273.443800048,600866.071199998,578466.070200084,456674.207900069,405679.737000028,580205.76650009,458436.585900025,582145.356800058,436490.61149999,599107.766000088,NA,NA,NA,NA,NA,569265.182400006,378449.072499992,442213.417400024,593988.390600076,484450.27390006,569155.091100023,569090.249600005,599403.251099982,6823.36819998454,600476.794600021,6823.40069999918,600166.58640001,378447.906200076,493807.405200088,493751.189999981,7884.31590003893,NA,NA,239000.728700077,13,141941.729299841,14,0,25,1,23,"Physik",6,3,3,3,3,3
93.3333333333333,120,9490.58347999429,"l","speed","ta1999ma","1","b","l","0","1","0",44,3,700,"Tue Mar 28 10:14:18 2023",0,"sehr leicht","speed","Experiment.osexp","Bild_s4_b_8.png",1080,"ma",1999,"ta","orangene","C:/Users/steff/Documents/Universität/Master Psychologie/SS 2022/Masterarbeit/Experiment/subject-5.csv",0,0,0,"a",35,35,"l","l",417.022900073789,417.022900073789,5,NA,602288.147700019,569155.166700017,378449.322800036,493699.693000061,602706.092600012,601978.472999996,17714.9353000568,493814.208100084,NA,6823.22620006744,NA,488704.474200029,601986.492400058,601203.181300079,593988.524200046,484450.397800072,569273.218000075,442222.44380007,7912.01920004096,48484.858400072,95512.0729000773,128731.563300011,160219.188300078,221831.020200043,569273.443800048,602706.1827,578466.070200084,456674.207900069,405679.737000028,580205.76650009,458436.585900025,582145.356800058,436490.61149999,600902.262600022,NA,NA,NA,NA,NA,569265.182400006,378449.072499992,442213.417400024,593988.390600076,484450.27390006,569155.091100023,569090.249600005,601197.114499984,6823.36819998454,602288.249499979,6823.40069999918,601978.38049999,378447.906200076,493807.405200088,493751.189999981,7884.31590003893,NA,NA,239000.728700077,14,142358.752199914,15,0,25,1,23,"Physik",6,3,3,3,3,3
93.75,120,8921.61218124238,"l","speed","ta1999ma","1","o","a","0","1","0",45,3,700,"Tue Mar 28 10:14:18 2023",0,"sehr leicht","speed","Experiment.osexp","Bild_s4_o_24.png",1080,"ma",1999,"ta","orangene","C:/Users/steff/Documents/Universität/Master Psychologie/SS 2022/Masterarbeit/Experiment/subject-5.csv",0,0,0,"a",40,40,"a","a",387.042699963786,387.042699963786,5,NA,604206.142600044,569155.166700017,378449.322800036,493699.693000061,604594.122100039,603896.261100075,17714.9353000568,493814.208100084,NA,6823.22620006744,NA,488704.474200029,603904.290999984,603023.889500066,593988.524200046,484450.397800072,569273.218000075,442222.44380007,7912.01920004096,48484.858400072,95512.0729000773,128731.563300011,160219.188300078,221831.020200043,569273.443800048,604594.214400044,578466.070200084,456674.207900069,405679.737000028,580205.76650009,458436.585900025,582145.356800058,436490.61149999,602722.433399991,NA,NA,NA,NA,NA,569265.182400006,378449.072499992,442213.417400024,593988.390600076,484450.27390006,569155.091100023,569090.249600005,603017.513000057,6823.36819998454,604206.248500035,6823.40069999918,603896.157699986,378447.906200076,493807.405200088,493751.189999981,7884.31590003893,NA,NA,239000.728700077,15,142745.794899878,16,0,25,1,23,"Physik",6,3,3,3,3,3
94.1176470588235,120,8418.15991175827,"l","speed","ta1999ma","1","o","a","0","1","0",46,3,700,"Tue Mar 28 10:14:18 2023",0,"sehr leicht","speed","Experiment.osexp","Bild_s4_o_23.png",1080,"ma",1999,"ta","orangene","C:/Users/steff/Documents/Universität/Master Psychologie/SS 2022/Masterarbeit/Experiment/subject-5.csv",0,0,0,"a",45,45,"a","a",362.923600012437,362.923600012437,5,NA,606134.220300009,569155.166700017,378449.322800036,493699.693000061,606498.228700017,605824.908000068,17714.9353000568,493814.208100084,NA,6823.22620006744,NA,488704.474200029,605832.726299996,604933.545800042,593988.524200046,484450.397800072,569273.218000075,442222.44380007,7912.01920004096,48484.858400072,95512.0729000773,128731.563300011,160219.188300078,221831.020200043,569273.443800048,606498.320400016,578466.070200084,456674.207900069,405679.737000028,580205.76650009,458436.585900025,582145.356800058,436490.61149999,604631.693100091,NA,NA,NA,NA,NA,569265.182400006,378449.072499992,442213.417400024,593988.390600076,484450.27390006,569155.091100023,569090.249600005,604927.306800033,6823.36819998454,606134.333800059,6823.40069999918,605824.811400031,378447.906200076,493807.405200088,493751.189999981,7884.31590003893,NA,NA,239000.728700077,16,143108.718499891,17,0,25,1,23,"Physik",6,3,3,3,3,3
94.4444444444444,120,7974.49994999139,"l","speed","ta1999ma","1","o","a","0","1","0",47,3,700,"Tue Mar 28 10:14:18 2023",0,"sehr leicht","speed","Experiment.osexp","Bild_s4_o_12.png",1080,"ma",1999,"ta","orangene","C:/Users/steff/Documents/Universität/Master Psychologie/SS 2022/Masterarbeit/Experiment/subject-5.csv",0,0,0,"a",50,50,"a","a",432.280599954538,432.280599954538,5,NA,608000.833200058,569155.166700017,378449.322800036,493699.693000061,608434.144700062,607687.225600006,17714.9353000568,493814.208100084,NA,6823.22620006744,NA,488704.474200029,607698.947000084,606829.761700006,593988.524200046,484450.397800072,569273.218000075,442222.44380007,7912.01920004096,48484.858400072,95512.0729000773,128731.563300011,160219.188300078,221831.020200043,569273.443800048,608434.234200045,578466.070200084,456674.207900069,405679.737000028,580205.76650009,458436.585900025,582145.356800058,436490.61149999,606528.108000057,NA,NA,NA,NA,NA,569265.182400006,378449.072499992,442213.417400024,593988.390600076,484450.27390006,569155.091100023,569090.249600005,606823.564100079,6823.36819998454,608000.989800086,6823.40069999918,607687.054699985,378447.906200076,493807.405200088,493751.189999981,7884.31590003893,NA,NA,239000.728700077,17,143540.999099845,18,0,25,1,23,"Physik",6,3,3,3,3,3
94.7368421052632,120,7575.02058420428,"l","speed","ta1999ma","1","o","a","0","1","0",48,3,700,"Tue Mar 28 10:14:18 2023",0,"sehr leicht","speed","Experiment.osexp","Bild_s4_o_16.png",1080,"ma",1999,"ta","orangene","C:/Users/steff/Documents/Universität/Master Psychologie/SS 2022/Masterarbeit/Experiment/subject-5.csv",0,0,0,"a",55,55,"a","a",384.392000036314,384.392000036314,5,NA,609920.756999985,569155.166700017,378449.322800036,493699.693000061,610306.179300067,609610.888099996,17714.9353000568,493814.208100084,NA,6823.22620006744,NA,488704.474200029,609618.968700059,608753.545999993,608879.500000039,484450.397800072,569273.218000075,442222.44380007,7912.01920004096,48484.858400072,95512.0729000773,128731.563300011,160219.188300078,221831.020200043,569273.443800048,610306.267400039,578466.070200084,456674.207900069,405679.737000028,580205.76650009,458436.585900025,582145.356800058,436490.61149999,608451.790000079,NA,NA,NA,NA,NA,569265.182400006,378449.072499992,442213.417400024,608879.373700009,484450.27390006,569155.091100023,569090.249600005,608746.752500068,6823.36819998454,609920.879199984,6823.40069999918,609610.726200044,378447.906200076,493807.405200088,493751.189999981,7884.31590003893,NA,NA,239000.728700077,18,143925.391099881,19,0,25,1,23,"Physik",6,3,3,3,3,3
95,120,7218.08935499284,"l","speed","ta1999ma","1","b","l","0","1","0",49,3,700,"Tue Mar 28 10:14:18 2023",0,"sehr leicht","speed","Experiment.osexp","Bild_s4_b_4.png",1080,"ma",1999,"ta","orangene","C:/Users/steff/Documents/Universität/Master Psychologie/SS 2022/Masterarbeit/Experiment/subject-5.csv",0,0,0,"a",60,60,"l","l",436.395999975502,436.395999975502,5,NA,611708.753300016,569155.166700017,378449.322800036,493699.693000061,612146.301400033,611398.754400085,17714.9353000568,493814.208100084,NA,6823.22620006744,NA,488704.474200029,611406.959300046,610638.138100039,608879.500000039,484450.397800072,569273.218000075,442222.44380007,7912.01920004096,48484.858400072,95512.0729000773,128731.563300011,160219.188300078,221831.020200043,569273.443800048,612146.401799982,578466.070200084,456674.207900069,405679.737000028,580205.76650009,458436.585900025,582145.356800058,436490.61149999,610336.730199982,NA,NA,NA,NA,NA,569265.182400006,378449.072499992,442213.417400024,608879.373700009,484450.27390006,569155.091100023,569090.249600005,610632.156300009,6823.36819998454,611708.877000026,6823.40069999918,611398.66200008,378447.906200076,493807.405200088,493751.189999981,7884.31590003893,NA,NA,239000.728700077,19,144361.787099857,20,0,25,1,23,"Physik",6,3,3,3,3,3
95.2380952380952,120,6890.49620951326,"l","speed","ta1999ma","1","b","l","0","1","0",50,3,700,"Tue Mar 28 10:14:18 2023",0,"sehr leicht","speed","Experiment.osexp","Bild_s4_b_5.png",1080,"ma",1999,"ta","orangene","C:/Users/steff/Documents/Universität/Master Psychologie/SS 2022/Masterarbeit/Experiment/subject-5.csv",0,0,0,"a",65,65,"l","l",338.633299921639,338.633299921639,5,NA,613534.537300002,569155.166700017,378449.322800036,493699.693000061,613874.283300014,613224.799800082,17714.9353000568,493814.208100084,NA,6823.22620006744,NA,488704.474200029,613233.154100017,612464.626900037,608879.500000039,484450.397800072,569273.218000075,442222.44380007,7912.01920004096,48484.858400072,95512.0729000773,128731.563300011,160219.188300078,221831.020200043,569273.443800048,613874.383000075,578466.070200084,456674.207900069,405679.737000028,580205.76650009,458436.585900025,582145.356800058,436490.61149999,612163.052599994,NA,NA,NA,NA,NA,569265.182400006,378449.072499992,442213.417400024,608879.373700009,484450.27390006,569155.091100023,569090.249600005,612458.378000068,6823.36819998454,613534.637300065,6823.40069999918,613224.700100021,378447.906200076,493807.405200088,493751.189999981,7884.31590003893,NA,NA,239000.728700077,20,144700.420399779,21,0,25,1,23,"Physik",6,3,3,3,3,3
95.4545454545454,120,6594.86193635332,"l","speed","ta1999ma","1","b","l","0","1","0",51,3,700,"Tue Mar 28 10:14:18 2023",0,"sehr leicht","speed","Experiment.osexp","Bild_s4_b_3.png",1080,"ma",1999,"ta","orangene","C:/Users/steff/Documents/Universität/Master Psychologie/SS 2022/Masterarbeit/Experiment/subject-5.csv",0,0,0,"a",70,70,"l","l",386.542199994437,386.542199994437,5,NA,615294.617900043,569155.166700017,378449.322800036,493699.693000061,615682.08040006,614984.831199981,17714.9353000568,493814.208100084,NA,6823.22620006744,NA,488704.474200029,614993.138600024,614210.459400085,608879.500000039,484450.397800072,569273.218000075,442222.44380007,7912.01920004096,48484.858400072,95512.0729000773,128731.563300011,160219.188300078,221831.020200043,569273.443800048,615682.170700049,578466.070200084,456674.207900069,405679.737000028,580205.76650009,458436.585900025,582145.356800058,436490.61149999,613908.251299988,NA,NA,NA,NA,NA,569265.182400006,378449.072499992,442213.417400024,608879.373700009,484450.27390006,569155.091100023,569090.249600005,614204.325800063,6823.36819998454,615294.716000091,6823.40069999918,614984.736200073,378447.906200076,493807.405200088,493751.189999981,7884.31590003893,NA,NA,239000.728700077,21,145086.962599773,22,0,25,1,23,"Physik",6,3,3,3,3,3
95.6521739130435,120,6327.77906521021,"l","speed","ta1999ma","1","b","l","0","1","0",52,3,700,"Tue Mar 28 10:14:18 2023",0,"sehr leicht","speed","Experiment.osexp","Bild_s4_b_20.png",1080,"ma",1999,"ta","orangene","C:/Users/steff/Documents/Universität/Master Psychologie/SS 2022/Masterarbeit/Experiment/subject-5.csv",0,0,0,"a",75,75,"l","l",451.955900061876,451.955900061876,5,NA,617181.188800023,569155.166700017,378449.322800036,493699.693000061,617634.089100058,616871.434499975,17714.9353000568,493814.208100084,NA,6823.22620006744,NA,488704.474200029,616879.538799985,616020.437000087,608879.500000039,484450.397800072,569273.218000075,442222.44380007,7912.01920004096,48484.858400072,95512.0729000773,128731.563300011,160219.188300078,221831.020200043,569273.443800048,617634.17980005,578466.070200084,456674.207900069,405679.737000028,580205.76650009,458436.585900025,582145.356800058,436490.61149999,615719.420599984,NA,NA,NA,NA,NA,569265.182400006,378449.072499992,442213.417400024,608879.373700009,484450.27390006,569155.091100023,569090.249600005,616014.328500023,6823.36819998454,617181.307699997,6823.40069999918,616871.329699992,378447.906200076,493807.405200088,493751.189999981,7884.31590003893,NA,NA,239000.728700077,22,145538.918499835,23,0,25,1,23,"Physik",6,3,3,3,3,3
95.8333333333333,120,6079.34352082763,"l","speed","ta1999ma","1","o","a","0","1","0",53,3,700,"Tue Mar 28 10:14:18 2023",0,"sehr leicht","speed","Experiment.osexp","Bild_s4_o_7.png",1080,"ma",1999,"ta","orangene","C:/Users/steff/Documents/Universität/Master Psychologie/SS 2022/Masterarbeit/Experiment/subject-5.csv",0,0,0,"a",80,80,"a","a",365.32600002829,365.32600002829,5,NA,619107.81210009,569155.166700017,378449.322800036,493699.693000061,619474.290400045,618798.072200036,17714.9353000568,493814.208100084,NA,6823.22620006744,NA,488704.474200029,618805.957600009,617974.48980005,608879.500000039,484450.397800072,569273.218000075,442222.44380007,7912.01920004096,48484.858400072,95512.0729000773,128731.563300011,160219.188300078,221831.020200043,569273.443800048,619474.386100075,578466.070200084,456674.207900069,405679.737000028,580205.76650009,458436.585900025,582145.356800058,436490.61149999,617671.554,NA,NA,NA,NA,NA,569265.182400006,378449.072499992,442213.417400024,608879.373700009,484450.27390006,569155.091100023,569090.249600005,617968.261400005,6823.36819998454,619107.930100057,6823.40069999918,618797.970700078,378447.906200076,493807.405200088,493751.189999981,7884.31590003893,NA,NA,239000.728700077,23,145904.244499863,24,0,25,1,23,"Physik",6,3,3,3,3,3
96,120,5851.44357599318,"l","speed","ta1999ma","1","o","a","0","1","0",54,3,700,"Tue Mar 28 10:14:18 2023",0,"sehr leicht","speed","Experiment.osexp","Bild_s4_o_11.png",1080,"ma",1999,"ta","orangene","C:/Users/steff/Documents/Universität/Master Psychologie/SS 2022/Masterarbeit/Experiment/subject-5.csv",0,0,0,"a",85,85,"a","a",381.844899966381,381.844899966381,5,NA,620867.266400019,569155.166700017,378449.322800036,493699.693000061,621250.137199997,620557.644000044,17714.9353000568,493814.208100084,NA,6823.22620006744,NA,488704.474200029,620565.897800028,619803.061700077,608879.500000039,484450.397800072,569273.218000075,442222.44380007,7912.01920004096,48484.858400072,95512.0729000773,128731.563300011,160219.188300078,221831.020200043,569273.443800048,621250.2293,578466.070200084,456674.207900069,405679.737000028,580205.76650009,458436.585900025,582145.356800058,436490.61149999,619501.493300078,NA,NA,NA,NA,NA,569265.182400006,378449.072499992,442213.417400024,608879.373700009,484450.27390006,569155.091100023,569090.249600005,619796.811999986,6823.36819998454,620867.407100042,6823.40069999918,620557.551300037,378447.906200076,493807.405200088,493751.189999981,7884.31590003893,NA,NA,239000.728700077,24,146286.08939983,25,0,25,1,23,"Physik",6,3,3,3,3,3
96.1538461538462,120,5641.73057306862,"l","speed","ta1999ma","1","o","a","0","1","0",55,3,700,"Tue Mar 28 10:14:18 2023",0,"sehr leicht","speed","Experiment.osexp","Bild_s4_o_20.png",1080,"ma",1999,"ta","orangene","C:/Users/steff/Documents/Universität/Master Psychologie/SS 2022/Masterarbeit/Experiment/subject-5.csv",0,0,0,"a",90,90,"a","a",398.905499954708,398.905499954708,5,NA,622626.162200002,569155.166700017,378449.322800036,493699.693000061,623026.072500041,622316.747099976,17714.9353000568,493814.208100084,NA,6823.22620006744,NA,488704.474200029,622324.801100069,621568.38000007,608879.500000039,484450.397800072,569273.218000075,442222.44380007,7912.01920004096,48484.858400072,95512.0729000773,128731.563300011,160219.188300078,221831.020200043,569273.443800048,623026.160500012,578466.070200084,456674.207900069,405679.737000028,580205.76650009,458436.585900025,582145.356800058,436490.61149999,621267.049900023,NA,NA,NA,NA,NA,569265.182400006,378449.072499992,442213.417400024,608879.373700009,484450.27390006,569155.091100023,569090.249600005,621562.428100035,6823.36819998454,622626.351400046,6823.40069999918,622316.657399992,378447.906200076,493807.405200088,493751.189999981,7884.31590003893,NA,NA,239000.728700077,25,146684.994899784,26,0,25,1,23,"Physik",6,3,3,3,3,3
92.5925925925926,120,5444.74246665508,"l","speed","ta1999ma","0","b","l","0","0","0",56,3,700,"Tue Mar 28 10:14:18 2023",1,"eher leicht","speed","Experiment.osexp","Bild_s3_b_6.png",1080,"ma",1999,"ta","orangene","C:/Users/steff/Documents/Universität/Master Psychologie/SS 2022/Masterarbeit/Experiment/subject-5.csv",0,1,0,"a",80,80,"a","a",323.051699902862,323.051699902862,5,NA,624478.092100006,569155.166700017,378449.322800036,493699.693000061,624802.075900021,624168.489100062,17714.9353000568,493814.208100084,NA,6823.22620006744,NA,488704.474200029,624176.722300006,623343.40230003,623458.256200072,484450.397800072,569273.218000075,442222.44380007,7912.01920004096,48484.858400072,95512.0729000773,128731.563300011,160219.188300078,221831.020200043,569273.443800048,624802.201000042,578466.070200084,456674.207900069,405679.737000028,580205.76650009,458436.585900025,582145.356800058,436490.61149999,623042.241399991,NA,NA,NA,NA,NA,569265.182400006,378449.072499992,442213.417400024,623458.131700056,484450.27390006,569155.091100023,569090.249600005,623337.212200044,6823.36819998454,624478.192600072,6823.40069999918,624168.389900005,378447.906200076,493807.405200088,493751.189999981,7884.31590003893,NA,NA,239000.728700077,25,147008.046599687,27,0,25,1,23,"Physik",6,3,3,3,3,3
89.2857142857143,120,5267.6426857028,"l","speed","ta1999ma","0","o","a","0","0","0",57,3,700,"Tue Mar 28 10:14:18 2023",1,"eher leicht","speed","Experiment.osexp","Bild_s3_o_18.png",1080,"ma",1999,"ta","orangene","C:/Users/steff/Documents/Universität/Master Psychologie/SS 2022/Masterarbeit/Experiment/subject-5.csv",0,1,0,"a",70,70,"l","l",485.948599991389,485.948599991389,5,NA,626267.188800033,569155.166700017,378449.322800036,493699.693000061,626754.075000063,625957.473700051,17714.9353000568,493814.208100084,NA,6823.22620006744,NA,488704.474200029,625965.357300011,625115.005700034,623458.256200072,484450.397800072,569273.218000075,442222.44380007,7912.01920004096,48484.858400072,95512.0729000773,128731.563300011,160219.188300078,221831.020200043,569273.443800048,626754.185700091,578466.070200084,456674.207900069,405679.737000028,580205.76650009,458436.585900025,624813.959900057,436490.61149999,623042.241399991,NA,NA,NA,NA,NA,569265.182400006,378449.072499992,442213.417400024,623458.131700056,484450.27390006,569155.091100023,569090.249600005,625108.909800067,6823.36819998454,626267.295200028,6823.40069999918,625957.3753,378447.906200076,493807.405200088,493751.189999981,7884.31590003893,NA,NA,239000.728700077,25,147493.995199678,28,0,25,1,23,"Physik",6,3,3,3,3,3
89.6551724137931,120,5105.93673447147,"l","speed","ta1999ma","1","o","a","0","1","0",58,3,700,"Tue Mar 28 10:14:18 2023",1,"eher leicht","speed","Experiment.osexp","Bild_s3_o_5.png",1080,"ma",1999,"ta","orangene","C:/Users/steff/Documents/Universität/Master Psychologie/SS 2022/Masterarbeit/Experiment/subject-5.csv",0,0,0,"a",75,75,"a","a",578.170099994168,578.170099994168,5,NA,628158.985999995,569155.166700017,378449.322800036,493699.693000061,628738.034600043,627848.209100077,17714.9353000568,493814.208100084,NA,6823.22620006744,NA,488704.474200029,627856.649700087,627085.930200061,623458.256200072,484450.397800072,569273.218000075,442222.44380007,7912.01920004096,48484.858400072,95512.0729000773,128731.563300011,160219.188300078,221831.020200043,569273.443800048,628738.126200042,578466.070200084,456674.207900069,405679.737000028,580205.76650009,458436.585900025,626784.160800045,436490.61149999,623042.241399991,NA,NA,NA,NA,NA,569265.182400006,378449.072499992,442213.417400024,623458.131700056,484450.27390006,569155.091100023,569090.249600005,627079.768200056,6823.36819998454,628159.078800003,6823.40069999918,627848.11510006,378447.906200076,493807.405200088,493751.189999981,7884.31590003893,NA,NA,239000.728700077,26,148072.165299673,29,0,25,1,23,"Physik",6,3,3,3,3,3
90,120,4951.2537799892,"l","speed","ta1999ma","1","o","a","0","1","0",59,3,700,"Tue Mar 28 10:14:18 2023",1,"eher leicht","speed","Experiment.osexp","Bild_s3_o_7.png",1080,"ma",1999,"ta","orangene","C:/Users/steff/Documents/Universität/Master Psychologie/SS 2022/Masterarbeit/Experiment/subject-5.csv",0,0,0,"a",80,80,"a","a",465.448100003414,465.448100003414,5,NA,630239.651500015,569155.166700017,378449.322800036,493699.693000061,630706.101200078,629929.147300078,17714.9353000568,493814.208100084,NA,6823.22620006744,NA,488704.474200029,629937.235600082,629061.713400064,623458.256200072,484450.397800072,569273.218000075,442222.44380007,7912.01920004096,48484.858400072,95512.0729000773,128731.563300011,160219.188300078,221831.020200043,569273.443800048,630706.192000071,578466.070200084,456674.207900069,405679.737000028,580205.76650009,458436.585900025,626784.160800045,436490.61149999,628760.538100032,NA,NA,NA,NA,NA,569265.182400006,378449.072499992,442213.417400024,623458.131700056,484450.27390006,569155.091100023,569090.249600005,629055.608900031,6823.36819998454,630239.802900003,6823.40069999918,629928.993100068,378447.906200076,493807.405200088,493751.189999981,7884.31590003893,NA,NA,239000.728700077,27,148537.613399676,30,0,25,1,23,"Physik",6,3,3,3,3,3
90.3225806451613,120,4807.43972579723,"l","speed","ta1999ma","1","o","a","0","1","0",60,3,700,"Tue Mar 28 10:14:18 2023",1,"eher leicht","speed","Experiment.osexp","Bild_s3_o_1.png",1080,"ma",1999,"ta","orangene","C:/Users/steff/Documents/Universität/Master Psychologie/SS 2022/Masterarbeit/Experiment/subject-5.csv",0,0,0,"a",85,85,"a","a",493.018100038171,493.018100038171,5,NA,632147.995200008,569155.166700017,378449.322800036,493699.693000061,632641.993900063,631838.640699978,17714.9353000568,493814.208100084,NA,6823.22620006744,NA,488704.474200029,631846.943399985,631042.434500065,623458.256200072,484450.397800072,569273.218000075,442222.44380007,7912.01920004096,48484.858400072,95512.0729000773,128731.563300011,160219.188300078,221831.020200043,569273.443800048,632642.096900032,578466.070200084,456674.207900069,405679.737000028,580205.76650009,458436.585900025,626784.160800045,436490.61149999,630741.142200073,NA,NA,NA,NA,NA,569265.182400006,378449.072499992,442213.417400024,623458.131700056,484450.27390006,569155.091100023,569090.249600005,631036.294399993,6823.36819998454,632148.225600016,6823.40069999918,631838.543000049,378447.906200076,493807.405200088,493751.189999981,7884.31590003893,NA,NA,239000.728700077,28,149030.631499714,31,0,25,1,23,"Physik",6,3,3,3,3,3
90.625,120,4672.06184373936,"l","speed","ta1999ma","1","b","l","0","1","0",61,3,700,"Tue Mar 28 10:14:18 2023",1,"eher leicht","speed","Experiment.osexp","Bild_s3_b_18.png",1080,"ma",1999,"ta","orangene","C:/Users/steff/Documents/Universität/Master Psychologie/SS 2022/Masterarbeit/Experiment/subject-5.csv",0,0,0,"a",90,90,"l","l",475.347499945201,475.347499945201,5,NA,634037.641400006,569155.166700017,378449.322800036,493699.693000061,634514.158200007,633727.689900086,17714.9353000568,493814.208100084,NA,6823.22620006744,NA,488704.474200029,633735.99960003,632957.844800083,623458.256200072,484450.397800072,569273.218000075,442222.44380007,7912.01920004096,48484.858400072,95512.0729000773,128731.563300011,160219.188300078,221831.020200043,569273.443800048,634514.247899991,578466.070200084,456674.207900069,405679.737000028,580205.76650009,458436.585900025,626784.160800045,436490.61149999,632656.441800063,NA,NA,NA,NA,NA,569265.182400006,378449.072499992,442213.417400024,623458.131700056,484450.27390006,569155.091100023,569090.249600005,632951.683400082,6823.36819998454,634037.893400062,6823.40069999918,633727.592400042,378447.906200076,493807.405200088,493751.189999981,7884.31590003893,NA,NA,239000.728700077,29,149505.978999659,32,0,25,1,23,"Physik",6,3,3,3,3,3
90.9090909090909,120,4543.47358180464,"l","speed","ta1999ma","1","b","l","0","1","0",62,3,700,"Tue Mar 28 10:14:18 2023",1,"eher leicht","speed","Experiment.osexp","Bild_s3_b_14.png",1080,"ma",1999,"ta","orangene","C:/Users/steff/Documents/Universität/Master Psychologie/SS 2022/Masterarbeit/Experiment/subject-5.csv",0,0,0,"a",95,95,"l","l",428.649199893698,428.649199893698,5,NA,635940.488600056,569155.166700017,378449.322800036,493699.693000061,636370.181799983,635630.668899976,17714.9353000568,493814.208100084,NA,6823.22620006744,NA,488704.474200029,635638.686400023,634852.362300036,623458.256200072,484450.397800072,569273.218000075,442222.44380007,7912.01920004096,48484.858400072,95512.0729000773,128731.563300011,160219.188300078,221831.020200043,569273.443800048,636370.271500084,578466.070200084,456674.207900069,405679.737000028,580205.76650009,458436.585900025,626784.160800045,436490.61149999,634551.256400067,NA,NA,NA,NA,NA,569265.182400006,378449.072499992,442213.417400024,623458.131700056,484450.27390006,569155.091100023,569090.249600005,634846.125100041,6823.36819998454,635940.599400084,6823.40069999918,635630.576800089,378447.906200076,493807.405200088,493751.189999981,7884.31590003893,NA,NA,239000.728700077,30,149934.628199553,33,0,25,1,23,"Physik",6,3,3,3,3,3
91.1764705882353,120,4422.59086469216,"l","speed","ta1999ma","1","b","l","0","1","0",63,3,700,"Tue Mar 28 10:14:18 2023",1,"eher leicht","speed","Experiment.osexp","Bild_s3_b_8.png",1080,"ma",1999,"ta","orangene","C:/Users/steff/Documents/Universität/Master Psychologie/SS 2022/Masterarbeit/Experiment/subject-5.csv",0,0,0,"a",100,100,"l","l",433.461199980229,433.461199980229,5,NA,637775.739900069,569155.166700017,378449.322800036,493699.693000061,638210.367400083,637466.475300025,17714.9353000568,493814.208100084,NA,6823.22620006744,NA,488704.474200029,637474.347100011,636702.715200023,623458.256200072,484450.397800072,569273.218000075,442222.44380007,7912.01920004096,48484.858400072,95512.0729000773,128731.563300011,160219.188300078,221831.020200043,569273.443800048,638210.475799977,578466.070200084,456674.207900069,405679.737000028,580205.76650009,458436.585900025,626784.160800045,436490.61149999,636401.554399985,NA,NA,NA,NA,NA,569265.182400006,378449.072499992,442213.417400024,623458.131700056,484450.27390006,569155.091100023,569090.249600005,636696.695600054,6823.36819998454,637775.848600082,6823.40069999918,637466.382700019,378447.906200076,493807.405200088,493751.189999981,7884.31590003893,NA,NA,239000.728700077,31,150368.089399533,34,0,25,1,23,"Physik",6,3,3,3,3,3
91.4285714285714,120,4307.36590284255,"l","speed","ta1999ma","1","b","l","0","1","0",64,3,700,"Tue Mar 28 10:14:18 2023",2,"eher schwer","speed","Experiment.osexp","Bild_s2_b_1.png",1080,"ma",1999,"ta","orangene","C:/Users/steff/Documents/Universität/Master Psychologie/SS 2022/Masterarbeit/Experiment/subject-5.csv",0,0,0,"a",105,105,"l","l",389.717199956067,389.717199956067,5,NA,639675.400700071,569155.166700017,378449.322800036,493699.693000061,640065.963900066,639365.514200064,17714.9353000568,493814.208100084,NA,6823.22620006744,NA,488704.474200029,639373.764000018,638531.910200021,638644.854100072,484450.397800072,569273.218000075,442222.44380007,7912.01920004096,48484.858400072,95512.0729000773,128731.563300011,160219.188300078,221831.020200043,569273.443800048,640066.05490006,578466.070200084,456674.207900069,405679.737000028,580205.76650009,458436.585900025,626784.160800045,436490.61149999,638230.154099991,NA,NA,NA,NA,NA,569265.182400006,378449.072499992,442213.417400024,638644.73280008,484450.27390006,569155.091100023,569090.249600005,638525.70290002,6823.36819998454,639675.522300065,6823.40069999918,639365.353700006,378447.906200076,493807.405200088,493751.189999981,7884.31590003893,NA,NA,239000.728700077,32,150757.806599489,35,0,25,1,23,"Physik",6,3,3,3,3,3
91.6666666666667,120,4198.3904777638,"l","speed","ta1999ma","1","o","a","0","1","0",65,3,700,"Tue Mar 28 10:14:18 2023",2,"eher schwer","speed","Experiment.osexp","Bild_s2_o_8.png",1080,"ma",1999,"ta","orangene","C:/Users/steff/Documents/Universität/Master Psychologie/SS 2022/Masterarbeit/Experiment/subject-5.csv",0,0,0,"a",110,110,"a","a",384.250600007363,384.250600007363,5,NA,641456.884399988,569155.166700017,378449.322800036,493699.693000061,641841.964600026,641146.898400038,17714.9353000568,493814.208100084,NA,6823.22620006744,NA,488704.474200029,641155.078300042,640380.754500045,638644.854100072,484450.397800072,569273.218000075,442222.44380007,7912.01920004096,48484.858400072,95512.0729000773,128731.563300011,160219.188300078,221831.020200043,569273.443800048,641842.052699998,578466.070200084,456674.207900069,405679.737000028,580205.76650009,458436.585900025,626784.160800045,436490.61149999,640079.420900089,NA,NA,NA,NA,NA,569265.182400006,378449.072499992,442213.417400024,638644.73280008,484450.27390006,569155.091100023,569090.249600005,640374.567500083,6823.36819998454,641456.982000032,6823.40069999918,641146.791100036,378447.906200076,493807.405200088,493751.189999981,7884.31590003893,NA,NA,239000.728700077,33,151142.057199497,36,0,25,1,23,"Physik",6,3,3,3,3,3
91.8918918918919,120,4094.66799458086,"l","speed","ta1999ma","1","o","a","0","1","0",66,3,700,"Tue Mar 28 10:14:18 2023",2,"eher schwer","speed","Experiment.osexp","Bild_s2_o_4.png",1080,"ma",1999,"ta","orangene","C:/Users/steff/Documents/Universität/Master Psychologie/SS 2022/Masterarbeit/Experiment/subject-5.csv",0,0,0,"a",115,115,"a","a",360.658599995077,360.658599995077,5,NA,643240.475900006,569155.166700017,378449.322800036,493699.693000061,643602.128700004,642930.939599988,17714.9353000568,493814.208100084,NA,6823.22620006744,NA,488704.474200029,642939.231900033,642165.942199994,638644.854100072,484450.397800072,569273.218000075,442222.44380007,7912.01920004096,48484.858400072,95512.0729000773,128731.563300011,160219.188300078,221831.020200043,569273.443800048,643602.219099994,578466.070200084,456674.207900069,405679.737000028,580205.76650009,458436.585900025,626784.160800045,436490.61149999,641864.735000068,NA,NA,NA,NA,NA,569265.182400006,378449.072499992,442213.417400024,638644.73280008,484450.27390006,569155.091100023,569090.249600005,642159.892400028,6823.36819998454,643240.573400049,6823.40069999918,642930.847899988,378447.906200076,493807.405200088,493751.189999981,7884.31590003893,NA,NA,239000.728700077,34,151502.715799492,37,0,25,1,23,"Physik",6,3,3,3,3,3
92.1052631578947,120,3996.65516314379,"l","speed","ta1999ma","1","o","a","0","1","0",67,3,700,"Tue Mar 28 10:14:18 2023",2,"eher schwer","speed","Experiment.osexp","Bild_s2_o_25.png",1080,"ma",1999,"ta","orangene","C:/Users/steff/Documents/Universität/Master Psychologie/SS 2022/Masterarbeit/Experiment/subject-5.csv",0,0,0,"a",120,120,"a","a",370.180399972014,370.180399972014,5,NA,645086.959999986,569155.166700017,378449.322800036,493699.693000061,645458.015799988,644775.439099991,17714.9353000568,493814.208100084,NA,6823.22620006744,NA,488704.474200029,644785.296600079,643939.198500011,638644.854100072,484450.397800072,569273.218000075,442222.44380007,7912.01920004096,48484.858400072,95512.0729000773,128731.563300011,160219.188300078,221831.020200043,569273.443800048,645458.103500074,578466.070200084,456674.207900069,405679.737000028,580205.76650009,458436.585900025,626784.160800045,436490.61149999,643637.941700057,NA,NA,NA,NA,NA,569265.182400006,378449.072499992,442213.417400024,638644.73280008,484450.27390006,569155.091100023,569090.249600005,643933.148300042,6823.36819998454,645087.06020005,6823.40069999918,644775.302199996,378447.906200076,493807.405200088,493751.189999981,7884.31590003893,NA,NA,239000.728700077,35,151872.896199464,38,0,25,1,23,"Physik",6,3,3,3,3,3
92.3076923076923,120,3904.67335895981,"l","speed","ta1999ma","1","b","l","0","1","0",68,3,700,"Tue Mar 28 10:14:18 2023",2,"eher schwer","speed","Experiment.osexp","Bild_s2_b_19.png",1080,"ma",1999,"ta","orangene","C:/Users/steff/Documents/Universität/Master Psychologie/SS 2022/Masterarbeit/Experiment/subject-5.csv",0,0,0,"a",125,125,"l","l",409.364799968898,409.364799968898,5,NA,646855.629600002,569155.166700017,378449.322800036,493699.693000061,647266.198200057,646546.187300002,17714.9353000568,493814.208100084,NA,6823.22620006744,NA,488704.474200029,646554.13579999,645787.545899977,638644.854100072,484450.397800072,569273.218000075,442222.44380007,7912.01920004096,48484.858400072,95512.0729000773,128731.563300011,160219.188300078,221831.020200043,569273.443800048,647266.290800064,578466.070200084,456674.207900069,405679.737000028,580205.76650009,458436.585900025,626784.160800045,436490.61149999,645486.575799994,NA,NA,NA,NA,NA,569265.182400006,378449.072499992,442213.417400024,638644.73280008,484450.27390006,569155.091100023,569090.249600005,645781.546800048,6823.36819998454,646855.878200033,6823.40069999918,646546.098100021,378447.906200076,493807.405200088,493751.189999981,7884.31590003893,NA,NA,239000.728700077,36,152282.260999433,39,0,25,1,23,"Physik",6,3,3,3,3,3
92.5,120,3820.2227774862,"l","speed","ta1999ma","1","o","a","0","1","0",69,3,700,"Tue Mar 28 10:14:18 2023",2,"eher schwer","speed","Experiment.osexp","Bild_s2_o_5.png",1080,"ma",1999,"ta","orangene","C:/Users/steff/Documents/Universität/Master Psychologie/SS 2022/Masterarbeit/Experiment/subject-5.csv",0,0,0,"a",130,130,"a","a",526.650100015104,526.650100015104,5,NA,648674.470100086,569155.166700017,378449.322800036,493699.693000061,649202.343399986,648364.775200025,17714.9353000568,493814.208100084,NA,6823.22620006744,NA,488704.474200029,648372.650100035,647598.664800054,638644.854100072,484450.397800072,569273.218000075,442222.44380007,7912.01920004096,48484.858400072,95512.0729000773,128731.563300011,160219.188300078,221831.020200043,569273.443800048,649202.436599997,578466.070200084,456674.207900069,405679.737000028,580205.76650009,458436.585900025,626784.160800045,436490.61149999,647295.697699999,NA,NA,NA,NA,NA,569265.182400006,378449.072499992,442213.417400024,638644.73280008,484450.27390006,569155.091100023,569090.249600005,647590.756600024,6823.36819998454,648674.593199976,6823.40069999918,648364.685500041,378447.906200076,493807.405200088,493751.189999981,7884.31590003893,NA,NA,239000.728700077,37,152808.911099448,40,0,25,1,23,"Physik",6,3,3,3,3,3
92.6829268292683,120,3740.61712437798,"l","speed","ta1999ma","1","b","l","0","1","0",70,3,700,"Tue Mar 28 10:14:18 2023",2,"eher schwer","speed","Experiment.osexp","Bild_s2_b_21.png",1080,"ma",1999,"ta","orangene","C:/Users/steff/Documents/Universität/Master Psychologie/SS 2022/Masterarbeit/Experiment/subject-5.csv",0,0,0,"a",135,135,"l","l",556.391000049189,556.391000049189,5,NA,650628.765500034,569155.166700017,378449.322800036,493699.693000061,651186.605600058,650319.158600061,17714.9353000568,493814.208100084,NA,6823.22620006744,NA,488704.474200029,650327.464000089,649534.973300062,638644.854100072,484450.397800072,569273.218000075,442222.44380007,7912.01920004096,48484.858400072,95512.0729000773,128731.563300011,160219.188300078,221831.020200043,569273.443800048,651186.729900073,578466.070200084,456674.207900069,405679.737000028,580205.76650009,458436.585900025,626784.160800045,436490.61149999,649233.508000034,NA,NA,NA,NA,NA,569265.182400006,378449.072499992,442213.417400024,638644.73280008,484450.27390006,569155.091100023,569090.249600005,649528.88290002,6823.36819998454,650628.88460001,6823.40069999918,650319.066300057,378447.906200076,493807.405200088,493751.189999981,7884.31590003893,NA,NA,239000.728700077,38,153365.302099497,41,0,25,1,23,"Physik",6,3,3,3,3,3
92.8571428571429,120,3663.60074760658,"l","speed","ta1999ma","1","o","a","0","1","0",71,3,700,"Tue Mar 28 10:14:18 2023",2,"eher schwer","speed","Experiment.osexp","Bild_s2_o_15.png",1080,"ma",1999,"ta","orangene","C:/Users/steff/Documents/Universität/Master Psychologie/SS 2022/Masterarbeit/Experiment/subject-5.csv",0,0,0,"a",140,140,"a","a",505.929299979471,505.929299979471,5,NA,652599.186400068,569155.166700017,378449.322800036,493699.693000061,653106.007700088,652289.3988,17714.9353000568,493814.208100084,NA,6823.22620006744,NA,488704.474200029,652297.775299987,651523.539000074,638644.854100072,484450.397800072,569273.218000075,442222.44380007,7912.01920004096,48484.858400072,95512.0729000773,128731.563300011,160219.188300078,221831.020200043,569273.443800048,653106.098100077,578466.070200084,456674.207900069,405679.737000028,580205.76650009,458436.585900025,626784.160800045,436490.61149999,651221.989699989,NA,NA,NA,NA,NA,569265.182400006,378449.072499992,442213.417400024,638644.73280008,484450.27390006,569155.091100023,569090.249600005,651517.411699984,6823.36819998454,652599.309100071,6823.40069999918,652289.303800091,378447.906200076,493807.405200088,493751.189999981,7884.31590003893,NA,NA,239000.728700077,39,153871.231399477,42,0,25,1,23,"Physik",6,3,3,3,3,3
93.0232558139535,120,3596.71303022079,"l","speed","ta1999ma","1","b","l","0","0","1",72,3,700,"Tue Mar 28 10:14:18 2023",3,"sehr schwer","speed","Experiment.osexp","Bild_s1_b_12.png",1080,"ma",1999,"ta","orangene","C:/Users/steff/Documents/Universität/Master Psychologie/SS 2022/Masterarbeit/Experiment/subject-5.csv",0,0,0,"a",130,130,"l","l",787.428900017403,787.428900017403,5,NA,654557.603300083,569155.166700017,378449.322800036,493699.693000061,655346.544000087,654248.197500012,17714.9353000568,493814.208100084,NA,6823.22620006744,NA,488704.474200029,654256.220399984,653423.316200031,653543.996800086,484450.397800072,569273.218000075,442222.44380007,7912.01920004096,48484.858400072,95512.0729000773,128731.563300011,160219.188300078,221831.020200043,569273.443800048,655346.690800041,578466.070200084,456674.207900069,405679.737000028,580205.76650009,458436.585900025,626784.160800045,436490.61149999,653122.213500086,NA,NA,NA,NA,NA,569265.182400006,378449.072499992,442213.417400024,653543.876199983,484450.27390006,569155.091100023,569090.249600005,653417.224099976,6823.36819998454,654557.806800003,6823.40069999918,654248.09290003,378447.906200076,493807.405200088,493751.189999981,7884.31590003893,NA,NA,239000.728700077,40,154658.660299494,43,0,25,1,23,"Physik",6,3,3,3,3,3
93.1818181818182,120,3545.50173180707,"l","speed","ta1999ma","1","o","a","0","0","1",73,3,700,"Tue Mar 28 10:14:18 2023",3,"sehr schwer","speed","Experiment.osexp","Bild_s1_o_20.png",1080,"ma",1999,"ta","orangene","C:/Users/steff/Documents/Universität/Master Psychologie/SS 2022/Masterarbeit/Experiment/subject-5.csv",0,0,0,"a",120,120,"a","a",1343.41590001713,1343.41590001713,5,NA,656737.576700049,569155.166700017,378449.322800036,493699.693000061,658082.216400071,656428.094599978,17714.9353000568,493814.208100084,NA,6823.22620006744,NA,488704.474200029,656436.054400052,655666.032899986,653543.996800086,484450.397800072,569273.218000075,442222.44380007,7912.01920004096,48484.858400072,95512.0729000773,128731.563300011,160219.188300078,221831.020200043,569273.443800048,658082.331400015,578466.070200084,456674.207900069,405679.737000028,655364.630400087,458436.585900025,626784.160800045,436490.61149999,653122.213500086,NA,NA,NA,NA,NA,569265.182400006,378449.072499992,442213.417400024,653543.876199983,484450.27390006,569155.091100023,569090.249600005,655660.035300069,6823.36819998454,656737.814099994,6823.40069999918,656428.00449999,378447.906200076,493807.405200088,493751.189999981,7884.31590003893,NA,NA,239000.728700077,41,156002.076199511,44,0,25,1,23,"Physik",6,3,3,3,3,3
93.3333333333333,120,3476.59057776651,"l","speed","ta1999ma","1","b","l","0","1","0",74,3,700,"Tue Mar 28 10:14:18 2023",3,"sehr schwer","speed","Experiment.osexp","Bild_s1_b_18.png",1080,"ma",1999,"ta","orangene","C:/Users/steff/Documents/Universität/Master Psychologie/SS 2022/Masterarbeit/Experiment/subject-5.csv",0,0,0,"a",125,125,"l","l",444.499799981713,444.499799981713,5,NA,659460.564200068,569155.166700017,378449.322800036,493699.693000061,659906.302200048,659150.89550009,17714.9353000568,493814.208100084,NA,6823.22620006744,NA,488704.474200029,659159.120700089,658398.638300016,653543.996800086,484450.397800072,569273.218000075,442222.44380007,7912.01920004096,48484.858400072,95512.0729000773,128731.563300011,160219.188300078,221831.020200043,569273.443800048,659906.39940009,578466.070200084,456674.207900069,405679.737000028,658097.505600075,458436.585900025,626784.160800045,436490.61149999,653122.213500086,NA,NA,NA,NA,NA,569265.182400006,378449.072499992,442213.417400024,653543.876199983,484450.27390006,569155.091100023,569090.249600005,658392.711500055,6823.36819998454,659460.700200056,6823.40069999918,659150.804399978,378447.906200076,493807.405200088,493751.189999981,7884.31590003893,NA,NA,239000.728700077,42,156446.575999493,45,0,25,1,23,"Physik",6,3,3,3,3,3
91.304347826087,120,3413.40163042364,"l","speed","ta1999ma","0","b","l","0","0","0",75,3,700,"Tue Mar 28 10:14:18 2023",3,"sehr schwer","speed","Experiment.osexp","Bild_s1_b_24.png",1080,"ma",1999,"ta","orangene","C:/Users/steff/Documents/Universität/Master Psychologie/SS 2022/Masterarbeit/Experiment/subject-5.csv",0,1,0,"a",115,115,"a","a",569.898999994621,569.898999994621,5,NA,661383.220900083,569155.166700017,378449.322800036,493699.693000061,661954.216000042,661070.021899999,17714.9353000568,493814.208100084,NA,6823.22620006744,NA,488704.474200029,661081.29760006,660237.730000052,653543.996800086,484450.397800072,569273.218000075,442222.44380007,7912.01920004096,48484.858400072,95512.0729000773,128731.563300011,160219.188300078,221831.020200043,569273.443800048,661954.327800078,578466.070200084,456674.207900069,405679.737000028,658097.505600075,458436.585900025,626784.160800045,436490.61149999,659936.647100025,NA,NA,NA,NA,NA,569265.182400006,378449.072499992,442213.417400024,653543.876199983,484450.27390006,569155.091100023,569090.249600005,660231.760299997,6823.36819998454,661383.330899989,6823.40069999918,661069.857300026,378447.906200076,493807.405200088,493751.189999981,7884.31590003893,NA,NA,239000.728700077,42,157016.474999487,46,0,25,1,23,"Physik",6,3,3,3,3,3
89.3617021276596,120,3355.99098722153,"l","speed","ta1999ma","0","o","a","0","0","0",76,3,700,"Tue Mar 28 10:14:18 2023",3,"sehr schwer","speed","Experiment.osexp","Bild_s1_o_17.png",1080,"ma",1999,"ta","orangene","C:/Users/steff/Documents/Universität/Master Psychologie/SS 2022/Masterarbeit/Experiment/subject-5.csv",0,0,1,"a",105,105,"l","l",715.101399924606,715.101399924606,5,NA,663349.892400089,569155.166700017,378449.322800036,493699.693000061,664066.263000015,663039.365899982,17714.9353000568,493814.208100084,NA,6823.22620006744,NA,488704.474200029,663047.694000066,662282.507100026,653543.996800086,484450.397800072,569273.218000075,442222.44380007,7912.01920004096,48484.858400072,95512.0729000773,128731.563300011,160219.188300078,221831.020200043,569273.443800048,664066.375600058,578466.070200084,456674.207900069,405679.737000028,658097.505600075,458436.585900025,661981.504500029,436490.61149999,659936.647100025,NA,NA,NA,NA,NA,569265.182400006,378449.072499992,442213.417400024,653543.876199983,484450.27390006,569155.091100023,569090.249600005,662276.52100008,6823.36819998454,663350.133000058,6823.40069999918,663039.274499984,378447.906200076,493807.405200088,493751.189999981,7884.31590003893,NA,NA,239000.728700077,42,157731.576399412,47,0,25,1,23,"Physik",6,3,3,3,3,3
89.5833333333333,120,3295.33581665358,"l","speed","ta1999ma","1","b","l","0","1","0",77,3,700,"Tue Mar 28 10:14:18 2023",3,"sehr schwer","speed","Experiment.osexp","Bild_s1_b_15.png",1080,"ma",1999,"ta","orangene","C:/Users/steff/Documents/Universität/Master Psychologie/SS 2022/Masterarbeit/Experiment/subject-5.csv",0,0,0,"a",110,110,"l","l",444.542799959891,444.542799959891,5,NA,665620.513600064,569155.166700017,378449.322800036,493699.693000061,666066.165900091,665309.650000068,17714.9353000568,493814.208100084,NA,6823.22620006744,NA,488704.474200029,665318.791400059,664386.192800011,653543.996800086,484450.397800072,569273.218000075,442222.44380007,7912.01920004096,48484.858400072,95512.0729000773,128731.563300011,160219.188300078,221831.020200043,569273.443800048,666066.254500067,578466.070200084,456674.207900069,405679.737000028,658097.505600075,664083.964099991,661981.504500029,436490.61149999,659936.647100025,NA,NA,NA,NA,NA,569265.182400006,378449.072499992,442213.417400024,653543.876199983,484450.27390006,569155.091100023,569090.249600005,664380.133600091,6823.36819998454,665620.676900027,6823.40069999918,665309.527300065,378447.906200076,493807.405200088,493751.189999981,7884.31590003893,NA,NA,239000.728700077,43,158176.119199372,48,0,25,1,23,"Physik",6,3,3,3,3,3
89.7959183673469,120,3239.65633059947,"l","speed","ta1999ma","1","b","l","0","1","0",78,3,700,"Tue Mar 28 10:14:18 2023",3,"sehr schwer","speed","Experiment.osexp","Bild_s1_b_11.png",1080,"ma",1999,"ta","orangene","C:/Users/steff/Documents/Universität/Master Psychologie/SS 2022/Masterarbeit/Experiment/subject-5.csv",0,0,0,"a",115,115,"l","l",567.041000002064,567.041000002064,5,NA,667466.068800073,569155.166700017,378449.322800036,493699.693000061,668034.126200015,667156.53180005,17714.9353000568,493814.208100084,NA,6823.22620006744,NA,488704.474200029,667164.274199982,666400.920700049,653543.996800086,484450.397800072,569273.218000075,442222.44380007,7912.01920004096,48484.858400072,95512.0729000773,128731.563300011,160219.188300078,221831.020200043,569273.443800048,668034.218900022,578466.070200084,456674.207900069,405679.737000028,658097.505600075,664083.964099991,661981.504500029,436490.61149999,666099.175199983,NA,NA,NA,NA,NA,569265.182400006,378449.072499992,442213.417400024,653543.876199983,484450.27390006,569155.091100023,569090.249600005,666394.769100007,6823.36819998454,667466.17410006,6823.40069999918,667156.438300037,378447.906200076,493807.405200088,493751.189999981,7884.31590003893,NA,NA,239000.728700077,44,158743.160199374,49,0,25,1,23,"Physik",6,3,3,3,3,3
90,120,3184.5829479862,"l","speed","ta1999ma","1","b","l","0","1","0",79,3,700,"Tue Mar 28 10:14:18 2023",3,"sehr schwer","speed","Experiment.osexp","Bild_s1_b_2.png",1080,"ma",1999,"ta","orangene","C:/Users/steff/Documents/Universität/Master Psychologie/SS 2022/Masterarbeit/Experiment/subject-5.csv",0,0,0,"a",120,120,"l","l",485.987199936062,485.987199936062,5,NA,669419.099100051,569155.166700017,378449.322800036,493699.693000061,669906.093800091,669109.625700046,17714.9353000568,493814.208100084,NA,6823.22620006744,NA,488704.474200029,669117.380000069,668366.370700067,653543.996800086,484450.397800072,569273.218000075,442222.44380007,7912.01920004096,48484.858400072,95512.0729000773,128731.563300011,160219.188300078,221831.020200043,569273.443800048,669906.183400075,578466.070200084,456674.207900069,405679.737000028,658097.505600075,664083.964099991,661981.504500029,436490.61149999,668065.476900083,NA,NA,NA,NA,NA,569265.182400006,378449.072499992,442213.417400024,653543.876199983,484450.27390006,569155.091100023,569090.249600005,668360.42520008,6823.36819998454,669419.205400045,6823.40069999918,669109.53050002,378447.906200076,493807.405200088,493751.189999981,7884.31590003893,NA,NA,239000.728700077,45,159229.14739931,50,0,25,1,23,"Physik",6,3,3,3,3,3
50,120,2623.51765006315,"l","accuracy","ta1999ma","0","o","a","0","0","0",80,4,700,"Tue Mar 28 10:14:18 2023",3,"sehr schwer","speed","Experiment.osexp","Bild_s1_o_8.png",1080,"ma",1999,"ta","orangene","C:/Users/steff/Documents/Universität/Master Psychologie/SS 2022/Masterarbeit/Experiment/subject-5.csv",1,0,0,"a",110,-10,"l","l",1135.55670005735,1135.55670005735,5,NA,680801.489299978,569155.166700017,378449.322800036,675456.893000053,681938.018899993,680489.671900054,17714.9353000568,493814.208100084,NA,6823.22620006744,670461.84870007,488704.474200029,680499.511500006,670242.660399992,679795.033300063,484450.397800072,675681.472700089,442222.44380007,7912.01920004096,48484.858400072,95512.0729000773,128731.563300011,160219.188300078,221831.020200043,675681.748699979,681938.099100022,679794.058999978,456674.207900069,405679.737000028,658097.505600075,664083.964099991,661981.504500029,436490.61149999,669941.363800084,NA,NA,NA,NA,NA,675669.909700053,378449.072499992,442213.417400024,679794.981300016,484450.27390006,569155.091100023,569090.249600005,670236.63290008,6823.36819998454,680801.648200024,6823.40069999918,680489.339400083,378447.906200076,493807.405200088,493751.189999981,7884.31590003893,NA,NA,239000.728700077,1,5247.0353001263,2,0,145,1,23,"Physik",6,3,3,3,3,3
