"accuracy","anzahl_gruppen","avg_rt","blauetaste","block","code","correct","correct_colour","correct_response","correct1","correct2","correct3","count_bildstimulus_3_1","count_block","cutoff","datetime","difficulty","difficulty_f","erstebedingung","experiment_file","filename","height","id_geburtsort","id_jahr","id_vater","linketaste","logfile","loose1","loose2","loose3","orangenetaste","punkte1","punkteimblock","response","response_tasteresponse_3_1","response_time","response_time_tasteresponse_3_1","subject_nr","time_bildershuffle","time_bildstimulus_3_1","time_block","time_block_tut","time_blockwerte_zuruecksetzten","time_cutoff_werte_und_punkte_3_1","time_definecorrectcolour_3_1","time_eingabemaske_kuerzel_python","time_ende_tutorial_1","time_ende_experimentierungsphase","time_experiment","time_feedback_serie","time_feedback_tutorial","time_fixationcross_3_1","time_grauesbild_3_1","time_gruppe_block","time_gruppe_tutorial","time_instruktionen_block","time_instruktionen_tutorial_1","time_introduction_1","time_introduction_2_1","time_introduction_3_punkte","time_introduction_3_speed","time_introduction_4_accuracy","time_introduction_5_feedback","time_leertaste_fuer_naechsten_bildschirm","time_logger_3_1","time_loop_block","time_loop_block_tut","time_minifeedbacknegativ_acc","time_minifeedbacknegativ_speed_slow","time_minifeedbacknegativ_speed_slowandwrong","time_minifeedbacknegativ_speed_wrong","time_minifeedbackpositiv_acc","time_minifeedbackpositiv_speed","time_new_inline_script","time_pause_zwischen_serie_1","time_pause_zwischen_serie_2","time_reset_feedback","time_reset_feedback_1","time_sequenz_block","time_sequenz_block_tut","time_sequenz_block_tut_1","time_sequenz_gruppe","time_sequenz_gruppe_tut","time_sequenz_serie","time_serie","time_set_to_zero","time_start","time_tasteresponse_3_1","time_testloopprepareglitchtutorial","time_trial_3_1","time_tutorial","time_tutorial_ende","time_tutorial_wiederholungscheck","time_vorgeplaenkel","time_warnhinweis_3sek","time_warnhinweis_5sek","time_warnung_tutorial_1","total_correct","total_response_time","total_responses","tutorial","tutorialpunkte","geschlecht","alter","studiengang","bildungsabschluss","haendig1","haendig2","haendig3","haendig4","haendig_mean"
88.8888888888889,96,73821.1376111204,"l","accuracy","li1999no","0","o","a","0","0","0",0,1,700,"Thu Mar 16 14:25:22 2023",3,"sehr schwer","speed","Experiment.osexp","Bild_s1_o_11.png",1080,"no",1999,"li","orangene","C:/Users/steff/Documents/Universität/Master Psychologie/SS 2022/Masterarbeit/Experiment/subject-1.csv",1,0,0,"a",-10,-10,"None","None",4995.03910006024,4995.03910006024,1,160055.034199962,161057.645799941,NA,150192.0428999,NA,166053.007699898,160748.172199936,13639.2736999551,NA,NA,6986.25919991173,NA,NA,160756.065899972,NA,NA,160056.326999911,NA,150308.476299979,8014.89529991522,49158.0715999007,68975.0144999707,84482.062999974,111983.525299933,132299.728899961,150308.661799994,166053.095899988,NA,160055.062599946,NA,NA,NA,NA,NA,NA,NA,NA,NA,NA,NA,NA,150191.802799935,150300.41009991,NA,160056.272099959,NA,NA,NA,6986.39929993078,161057.763099903,6986.43239994999,160747.91279994,150190.655799932,NA,NA,7995.85559999105,NA,NA,144475.360499928,8,664390.238500084,9,1,0,1,23,"Germanistik",5,3,3,3,3,3
80,96,66593.4684600099,"l","accuracy","li1999no","0","b","l","0","0","0",1,1,700,"Thu Mar 16 14:25:22 2023",3,"sehr schwer","speed","Experiment.osexp","Bild_s1_b_18.png",1080,"no",1999,"li","orangene","C:/Users/steff/Documents/Universität/Master Psychologie/SS 2022/Masterarbeit/Experiment/subject-1.csv",1,0,0,"a",-20,-20,"a","a",1544.44610001519,1544.44610001519,1,160055.034199962,168461.78319992,NA,150192.0428999,NA,170006.997299963,168152.303999988,13639.2736999551,NA,NA,6986.25919991173,NA,NA,168160.410099896,167388.378800009,NA,160056.326999911,NA,150308.476299979,8014.89529991522,49158.0715999007,68975.0144999707,84482.062999974,111983.525299933,132299.728899961,150308.661799994,170007.080699899,NA,160055.062599946,166085.45429993,NA,NA,NA,NA,NA,NA,NA,NA,NA,NA,NA,150191.802799935,150300.41009991,NA,160056.272099959,NA,NA,167382.370699896,6986.39929993078,168461.913499981,6986.43239994999,168152.211699984,150190.655799932,NA,NA,7995.85559999105,166387.099299929,NA,144475.360499928,8,665934.684600099,10,1,0,1,23,"Germanistik",5,3,3,3,3,3
81.8181818181818,96,60673.0234727306,"l","accuracy","li1999no","1","b","l","1","0","0",2,1,700,"Thu Mar 16 14:25:22 2023",2,"eher schwer","speed","Experiment.osexp","Bild_s2_b_1.png",1080,"no",1999,"li","orangene","C:/Users/steff/Documents/Universität/Master Psychologie/SS 2022/Masterarbeit/Experiment/subject-1.csv",0,0,0,"a",-15,-15,"l","l",1468.57359993737,1468.57359993737,1,160055.034199962,171513.745200005,NA,150192.0428999,NA,172983.632099931,171204.382499913,13639.2736999551,NA,NA,6986.25919991173,NA,NA,171212.31079998,170331.71259996,NA,170451.612200006,NA,150308.476299979,8014.89529991522,49158.0715999007,68975.0144999707,84482.062999974,111983.525299933,132299.728899961,150308.661799994,172983.785699937,NA,160055.062599946,170030.433399952,NA,NA,NA,NA,NA,NA,NA,NA,NA,NA,NA,150191.802799935,150300.41009991,NA,170451.491599903,NA,NA,170325.611699955,6986.39929993078,171513.877199963,6986.43239994999,171204.290899914,150190.655799932,NA,NA,7995.85559999105,166387.099299929,NA,144475.360499928,9,667403.258200036,11,1,0,1,23,"Germanistik",5,3,3,3,3,3
83.3333333333333,96,55688.1200999972,"l","accuracy","li1999no","1","o","a","1","0","0",3,1,700,"Thu Mar 16 14:25:22 2023",2,"eher schwer","speed","Experiment.osexp","Bild_s2_o_5.png",1080,"no",1999,"li","orangene","C:/Users/steff/Documents/Universität/Master Psychologie/SS 2022/Masterarbeit/Experiment/subject-1.csv",0,0,0,"a",-10,-10,"a","a",854.182999930345,854.182999930345,1,160055.034199962,174416.00149998,NA,150192.0428999,NA,175271.136499941,174106.395499897,13639.2736999551,NA,NA,6986.25919991173,NA,NA,174114.459699951,173309.008599957,NA,170451.612200006,NA,150308.476299979,8014.89529991522,49158.0715999007,68975.0144999707,84482.062999974,111983.525299933,132299.728899961,150308.661799994,175271.220099996,NA,160055.062599946,170030.433399952,NA,NA,NA,173006.458899938,NA,NA,NA,NA,NA,NA,NA,150191.802799935,150300.41009991,NA,170451.491599903,NA,NA,173301.858099992,6986.39929993078,174416.126099997,6986.43239994999,174106.302300002,150190.655799932,NA,NA,7995.85559999105,166387.099299929,NA,144475.360499928,10,668257.441199967,12,1,0,1,23,"Germanistik",5,3,3,3,3,3
84.6153846153846,96,51471.4411000023,"l","accuracy","li1999no","1","o","a","1","0","0",4,1,700,"Thu Mar 16 14:25:22 2023",1,"eher leicht","speed","Experiment.osexp","Bild_s3_o_11.png",1080,"no",1999,"li","orangene","C:/Users/steff/Documents/Universität/Master Psychologie/SS 2022/Masterarbeit/Experiment/subject-1.csv",0,0,0,"a",-5,-5,"a","a",871.293100062758,871.293100062758,1,160055.034199962,176782.864999957,NA,150192.0428999,NA,177654.956999933,176472.031299956,13639.2736999551,NA,NA,6986.25919991173,NA,NA,176480.52360001,175599.607299897,NA,175732.482399908,NA,150308.476299979,8014.89529991522,49158.0715999007,68975.0144999707,84482.062999974,111983.525299933,132299.728899961,150308.661799994,177655.040399986,NA,160055.062599946,170030.433399952,NA,NA,NA,175298.087199917,NA,NA,NA,NA,NA,NA,NA,150191.802799935,150300.41009991,NA,175732.330899918,NA,NA,175593.358199927,6986.39929993078,176783.015899942,6986.43239994999,176471.932799905,150190.655799932,NA,NA,7995.85559999105,166387.099299929,NA,144475.360499928,11,669128.734300029,13,1,0,1,23,"Germanistik",5,3,3,3,3,3
85.7142857142857,96,47889.8556500041,"l","accuracy","li1999no","1","o","a","1","0","0",5,1,700,"Thu Mar 16 14:25:22 2023",1,"eher leicht","speed","Experiment.osexp","Bild_s3_o_18.png",1080,"no",1999,"li","orangene","C:/Users/steff/Documents/Universität/Master Psychologie/SS 2022/Masterarbeit/Experiment/subject-1.csv",0,0,0,"a",0,0,"a","a",1329.24480002839,1329.24480002839,1,160055.034199962,179140.95609996,NA,150192.0428999,NA,180471.134199994,178829.533399898,13639.2736999551,NA,NA,6986.25919991173,NA,NA,178838.717299979,177988.085299963,NA,175732.482399908,NA,150308.476299979,8014.89529991522,49158.0715999007,68975.0144999707,84482.062999974,111983.525299933,132299.728899961,150308.661799994,180471.217199927,NA,160055.062599946,170030.433399952,NA,NA,NA,177686.932499986,NA,NA,NA,NA,NA,NA,NA,150191.802799935,150300.41009991,NA,175732.330899918,NA,NA,177982.076599961,6986.39929993078,179141.065899981,6986.43239994999,178829.433399951,150190.655799932,NA,NA,7995.85559999105,166387.099299929,NA,144475.360499928,12,670457.979100058,14,1,0,1,23,"Germanistik",5,3,3,3,3,3
86.6666666666667,96,44742.2859000042,"l","accuracy","li1999no","1","b","l","1","0","0",6,1,700,"Thu Mar 16 14:25:22 2023",0,"sehr leicht","speed","Experiment.osexp","Bild_s4_b_19.png",1080,"no",1999,"li","orangene","C:/Users/steff/Documents/Universität/Master Psychologie/SS 2022/Masterarbeit/Experiment/subject-1.csv",0,0,0,"a",5,5,"l","l",676.309400005266,676.309400005266,1,160055.034199962,181937.894199975,NA,150192.0428999,NA,182615.051599918,181628.256600001,13639.2736999551,NA,NA,6986.25919991173,NA,NA,181636.186499964,180806.205499917,NA,180945.217699977,NA,150308.476299979,8014.89529991522,49158.0715999007,68975.0144999707,84482.062999974,111983.525299933,132299.728899961,150308.661799994,182615.135899978,NA,160055.062599946,170030.433399952,NA,NA,NA,180503.138599917,NA,NA,NA,NA,NA,NA,NA,150191.802799935,150300.41009991,NA,180945.09980001,NA,NA,180798.528199899,6986.39929993078,181938.000699971,6986.43239994999,181628.160999971,150190.655799932,NA,NA,7995.85559999105,166387.099299929,NA,144475.360499928,13,671134.288500063,15,1,0,1,23,"Germanistik",5,3,3,3,3,3
87.5,96,41992.3234125017,"l","accuracy","li1999no","1","o","a","1","0","0",7,1,700,"Thu Mar 16 14:25:22 2023",0,"sehr leicht","speed","Experiment.osexp","Bild_s4_o_11.png",1080,"no",1999,"li","orangene","C:/Users/steff/Documents/Universität/Master Psychologie/SS 2022/Masterarbeit/Experiment/subject-1.csv",0,0,0,"a",10,10,"a","a",742.88609996438,742.88609996438,1,160055.034199962,184015.338299912,NA,150192.0428999,NA,184759.049199987,183705.848799902,13639.2736999551,NA,NA,6986.25919991173,NA,NA,183714.167999919,182934.847099939,NA,180945.217699977,NA,150308.476299979,8014.89529991522,49158.0715999007,68975.0144999707,84482.062999974,111983.525299933,132299.728899961,150308.661799994,184759.132699925,NA,160055.062599946,170030.433399952,NA,NA,NA,182633.100999985,NA,NA,NA,NA,NA,NA,NA,150191.802799935,150300.41009991,NA,180945.09980001,NA,NA,182928.506499971,6986.39929993078,184015.438999981,6986.43239994999,183705.75199998,150190.655799932,NA,NA,7995.85559999105,166387.099299929,NA,144475.360499928,14,671877.174600028,16,1,0,1,23,"Germanistik",5,3,3,3,3,3
88.2352941176471,96,39557.4592176469,"l","accuracy","li1999no","1","o","a","1","0","0",8,1,700,"Thu Mar 16 14:25:22 2023",0,"sehr leicht","speed","Experiment.osexp","Bild_s4_o_6.png",1080,"no",1999,"li","orangene","C:/Users/steff/Documents/Universität/Master Psychologie/SS 2022/Masterarbeit/Experiment/subject-1.csv",0,0,0,"a",15,15,"a","a",599.632099969313,599.632099969313,1,160055.034199962,186254.54939995,NA,150192.0428999,NA,186855.020699906,185944.616399938,13639.2736999551,NA,NA,6986.25919991173,NA,NA,185952.604499995,185084.504099912,NA,185201.107600005,NA,150308.476299979,8014.89529991522,49158.0715999007,68975.0144999707,84482.062999974,111983.525299933,132299.728899961,150308.661799994,186855.105199968,NA,160055.062599946,170030.433399952,NA,NA,NA,184783.13919995,NA,NA,NA,NA,NA,NA,NA,150191.802799935,150300.41009991,NA,185200.985600008,NA,NA,185078.383799992,6986.39929993078,186254.706499982,6986.43239994999,185944.518100005,150190.655799932,NA,NA,7995.85559999105,166387.099299929,NA,144475.360499928,15,672476.806699997,17,1,0,1,23,"Germanistik",5,3,3,3,3,3
88.8888888888889,96,37394.4958055508,"l","accuracy","li1999no","1","o","a","1","0","0",9,1,700,"Thu Mar 16 14:25:22 2023",0,"sehr leicht","speed","Experiment.osexp","Bild_s4_o_4.png",1080,"no",1999,"li","orangene","C:/Users/steff/Documents/Universität/Master Psychologie/SS 2022/Masterarbeit/Experiment/subject-1.csv",0,0,0,"a",20,20,"a","a",624.117799918167,624.117799918167,1,160055.034199962,188261.991399922,NA,150192.0428999,NA,188887.254199944,187948.409999954,13639.2736999551,NA,NA,6986.25919991173,NA,NA,187956.70729992,187191.363699967,NA,185201.107600005,NA,150308.476299979,8014.89529991522,49158.0715999007,68975.0144999707,84482.062999974,111983.525299933,132299.728899961,150308.661799994,188887.337399996,NA,160055.062599946,170030.433399952,NA,NA,NA,186890.107499901,NA,NA,NA,NA,NA,NA,NA,150191.802799935,150300.41009991,NA,185200.985600008,NA,NA,187185.316399904,6986.39929993078,188262.216700008,6986.43239994999,187948.310599895,150190.655799932,NA,NA,7995.85559999105,166387.099299929,NA,144475.360499928,16,673100.924499915,18,1,0,1,23,"Germanistik",5,3,3,3,3,3
89.4736842105263,96,35449.5369842104,"l","accuracy","li1999no","1","b","l","1","0","0",10,1,700,"Thu Mar 16 14:25:22 2023",1,"eher leicht","speed","Experiment.osexp","Bild_s3_b_4.png",1080,"no",1999,"li","orangene","C:/Users/steff/Documents/Universität/Master Psychologie/SS 2022/Masterarbeit/Experiment/subject-1.csv",0,0,0,"a",25,25,"l","l",440.278200083412,440.278200083412,1,160055.034199962,190349.796499941,NA,150192.0428999,NA,190790.982799954,190033.661399968,13639.2736999551,NA,NA,6986.25919991173,NA,NA,190044.538599905,189207.034499967,NA,189318.629799993,NA,150308.476299979,8014.89529991522,49158.0715999007,68975.0144999707,84482.062999974,111983.525299933,132299.728899961,150308.661799994,190791.070799925,NA,160055.062599946,170030.433399952,NA,NA,NA,188906.10059991,NA,NA,NA,NA,NA,NA,NA,150191.802799935,150300.41009991,NA,189318.507599994,NA,NA,189200.928699924,6986.39929993078,190350.054299925,6986.43239994999,190033.515399904,150190.655799932,NA,NA,7995.85559999105,166387.099299929,NA,144475.360499928,17,673541.202699998,19,1,0,1,23,"Germanistik",5,3,3,3,3,3
90,96,33702.8196649975,"l","accuracy","li1999no","1","o","a","1","0","0",11,1,700,"Thu Mar 16 14:25:22 2023",1,"eher leicht","speed","Experiment.osexp","Bild_s3_o_1.png",1080,"no",1999,"li","orangene","C:/Users/steff/Documents/Universität/Master Psychologie/SS 2022/Masterarbeit/Experiment/subject-1.csv",0,0,0,"a",30,30,"a","a",515.190599951893,515.190599951893,1,160055.034199962,192179.011099972,NA,150192.0428999,NA,192695.038500009,191868.711799965,13639.2736999551,NA,NA,6986.25919991173,NA,NA,191877.25609995,191125.438899966,NA,189318.629799993,NA,150308.476299979,8014.89529991522,49158.0715999007,68975.0144999707,84482.062999974,111983.525299933,132299.728899961,150308.661799994,192695.122099947,NA,160055.062599946,170030.433399952,NA,NA,NA,190824.198499904,NA,NA,NA,NA,NA,NA,NA,150191.802799935,150300.41009991,NA,189318.507599994,NA,NA,191119.412099943,6986.39929993078,192179.151599994,6986.43239994999,191868.599099922,150190.655799932,NA,NA,7995.85559999105,166387.099299929,NA,144475.360499928,18,674056.39329995,20,1,0,1,23,"Germanistik",5,3,3,3,3,3
85.7142857142857,96,32143.0290190481,"l","accuracy","li1999no","0","o","a","0","0","0",12,1,700,"Thu Mar 16 14:25:22 2023",2,"eher schwer","speed","Experiment.osexp","Bild_s2_o_1.png",1080,"no",1999,"li","orangene","C:/Users/steff/Documents/Universität/Master Psychologie/SS 2022/Masterarbeit/Experiment/subject-1.csv",1,0,0,"a",20,20,"l","l",947.21610005945,947.21610005945,1,160055.034199962,194178.987599909,NA,150192.0428999,NA,195127.347699949,193866.840899922,13639.2736999551,NA,NA,6986.25919991173,NA,NA,193874.817999895,193029.757399927,NA,193158.632499981,NA,150308.476299979,8014.89529991522,49158.0715999007,68975.0144999707,84482.062999974,111983.525299933,132299.728899961,150308.661799994,195127.461700002,NA,160055.062599946,170030.433399952,NA,NA,NA,192728.148299968,NA,NA,NA,NA,NA,NA,NA,150191.802799935,150300.41009991,NA,193158.512099995,NA,NA,193023.467299994,6986.39929993078,194179.142699926,6986.43239994999,193866.737799952,150190.655799932,NA,NA,7995.85559999105,166387.099299929,NA,144475.360499928,18,675003.60940001,21,1,0,1,23,"Germanistik",5,3,3,3,3,3
86.3636363636364,96,30744.0005409087,"l","accuracy","li1999no","1","o","a","1","0","0",13,1,700,"Thu Mar 16 14:25:22 2023",2,"eher schwer","speed","Experiment.osexp","Bild_s2_o_21.png",1080,"no",1999,"li","orangene","C:/Users/steff/Documents/Universität/Master Psychologie/SS 2022/Masterarbeit/Experiment/subject-1.csv",0,0,0,"a",25,25,"a","a",1364.40249998122,1364.40249998122,1,160055.034199962,196529.83949997,NA,150192.0428999,NA,197895.000299904,196220.239399932,13639.2736999551,NA,NA,6986.25919991173,NA,NA,196228.294399916,195441.175599932,NA,193158.632499981,NA,150308.476299979,8014.89529991522,49158.0715999007,68975.0144999707,84482.062999974,111983.525299933,132299.728899961,150308.661799994,197895.083799958,NA,160055.062599946,195140.161899966,NA,NA,NA,192728.148299968,NA,NA,NA,NA,NA,NA,NA,150191.802799935,150300.41009991,NA,193158.512099995,NA,NA,195435.116999899,6986.39929993078,196529.931699974,6986.43239994999,196220.144299907,150190.655799932,NA,NA,7995.85559999105,166387.099299929,NA,144475.360499928,19,676368.011899991,22,1,0,1,23,"Germanistik",5,3,3,3,3,3
86.9565217391304,96,29456.234634783,"l","accuracy","li1999no","1","b","l","1","0","0",14,1,700,"Thu Mar 16 14:25:22 2023",3,"sehr schwer","speed","Experiment.osexp","Bild_s1_b_6.png",1080,"no",1999,"li","orangene","C:/Users/steff/Documents/Universität/Master Psychologie/SS 2022/Masterarbeit/Experiment/subject-1.csv",0,0,0,"a",30,30,"l","l",1125.38470001891,1125.38470001891,1,160055.034199962,199360.835499945,NA,150192.0428999,NA,200486.994899926,199050.400599954,13639.2736999551,NA,NA,6986.25919991173,NA,NA,199058.756199898,198229.688699939,NA,198351.952199941,NA,150308.476299979,8014.89529991522,49158.0715999007,68975.0144999707,84482.062999974,111983.525299933,132299.728899961,150308.661799994,200487.081200001,NA,160055.062599946,195140.161899966,NA,NA,NA,197926.906799898,NA,NA,NA,NA,NA,NA,NA,150191.802799935,150300.41009991,NA,198351.831899956,NA,NA,198222.885799943,6986.39929993078,199360.974099953,6986.43239994999,199050.302399904,150190.655799932,NA,NA,7995.85559999105,166387.099299929,NA,144475.360499928,20,677493.39660001,23,1,0,1,23,"Germanistik",5,3,3,3,3,3
83.3333333333333,96,28276.4584208295,"l","accuracy","li1999no","0","o","a","0","0","0",15,1,700,"Thu Mar 16 14:25:22 2023",3,"sehr schwer","speed","Experiment.osexp","Bild_s1_o_6.png",1080,"no",1999,"li","orangene","C:/Users/steff/Documents/Universität/Master Psychologie/SS 2022/Masterarbeit/Experiment/subject-1.csv",1,0,0,"a",20,20,"l","l",1141.60549989901,1141.60549989901,1,160055.034199962,201888.589399983,NA,150192.0428999,NA,203031.276999973,201578.085899935,13639.2736999551,NA,NA,6986.25919991173,NA,NA,201586.776499986,200821.42459997,NA,198351.952199941,NA,150308.476299979,8014.89529991522,49158.0715999007,68975.0144999707,84482.062999974,111983.525299933,132299.728899961,150308.661799994,203031.373000005,NA,160055.062599946,195140.161899966,NA,NA,NA,200520.43959999,NA,NA,NA,NA,NA,NA,NA,150191.802799935,150300.41009991,NA,198351.831899956,NA,NA,200815.388499992,6986.39929993078,201888.714000001,6986.43239994999,201577.986799995,150190.655799932,NA,NA,7995.85559999105,166387.099299929,NA,144475.360499928,20,678635.002099909,24,1,0,1,23,"Germanistik",5,3,3,3,3,3
100,96,7521.76309999777,"l","speed","li1999no","1","o","a","0","0","1",16,2,700,"Thu Mar 16 14:25:22 2023",3,"sehr schwer","speed","Experiment.osexp","Bild_s1_o_8.png",1080,"no",1999,"li","orangene","C:/Users/steff/Documents/Universität/Master Psychologie/SS 2022/Masterarbeit/Experiment/subject-1.csv",0,0,0,"a",10,-10,"a","a",899.040500051342,899.040500051342,1,223015.207799966,223971.181500005,NA,150192.0428999,208596.460099914,224870.970399934,223661.836899933,13639.2736999551,NA,NA,6986.25919991173,NA,203601.148999995,223669.660099898,203358.431799919,NA,223016.469599912,NA,208869.65249991,8014.89529991522,49158.0715999007,68975.0144999707,84482.062999974,111983.525299933,132299.728899961,208869.876499986,224871.083599981,NA,223015.233999933,203057.326299953,NA,NA,NA,200520.43959999,NA,NA,NA,NA,NA,NA,NA,150191.802799935,208856.338499929,NA,223016.41349995,NA,NA,203352.423899923,6986.39929993078,223971.3053999,6986.43239994999,223661.605299916,150190.655799932,NA,NA,7995.85559999105,166387.099299929,NA,144475.360499928,2,15043.5261999955,2,1,20,1,23,"Germanistik",5,3,3,3,3,3
66.6666666666667,96,5139.71073331777,"l","speed","li1999no","0","b","l","0","0","0",17,2,700,"Thu Mar 16 14:25:22 2023",3,"sehr schwer","speed","Experiment.osexp","Bild_s1_b_21.png",1080,"no",1999,"li","orangene","C:/Users/steff/Documents/Universität/Master Psychologie/SS 2022/Masterarbeit/Experiment/subject-1.csv",0,1,0,"a",0,-20,"a","a",375.60599995777,375.60599995777,1,223015.207799966,226238.625600003,NA,150192.0428999,208596.460099914,226615.020199912,225927.62699991,13639.2736999551,NA,NA,6986.25919991173,NA,203601.148999995,225936.148899957,225199.854999897,NA,223016.469599912,NA,208869.65249991,8014.89529991522,49158.0715999007,68975.0144999707,84482.062999974,111983.525299933,132299.728899961,208869.876499986,226615.1388,NA,223015.233999933,203057.326299953,224899.10619997,NA,NA,200520.43959999,NA,NA,NA,NA,NA,NA,NA,150191.802799935,208856.338499929,NA,223016.41349995,NA,NA,225193.876100006,6986.39929993078,226238.728399971,6986.43239994999,225927.524199942,150190.655799932,NA,NA,7995.85559999105,166387.099299929,NA,144475.360499928,2,15419.1321999533,3,1,20,1,23,"Germanistik",5,3,3,3,3,3
50,96,4047.52629998256,"l","speed","li1999no","0","b","l","0","0","0",18,2,700,"Thu Mar 16 14:25:22 2023",2,"eher schwer","speed","Experiment.osexp","Bild_s2_b_22.png",1080,"no",1999,"li","orangene","C:/Users/steff/Documents/Universität/Master Psychologie/SS 2022/Masterarbeit/Experiment/subject-1.csv",0,0,1,"a",-10,-30,"a","a",770.972999976948,770.972999976948,1,223015.207799966,228179.26289991,NA,150192.0428999,208596.460099914,228951.278899913,227864.496499998,13639.2736999551,NA,NA,6986.25919991173,NA,203601.148999995,227876.985599985,226927.723299945,NA,227050.654399907,NA,208869.65249991,8014.89529991522,49158.0715999007,68975.0144999707,84482.062999974,111983.525299933,132299.728899961,208869.876499986,228951.392399962,NA,223015.233999933,203057.326299953,224899.10619997,NA,226626.519499929,200520.43959999,NA,NA,NA,NA,NA,NA,NA,150191.802799935,208856.338499929,NA,227050.532899913,NA,NA,226921.818199917,6986.39929993078,228179.366900004,6986.43239994999,227864.312999998,150190.655799932,NA,NA,7995.85559999105,166387.099299929,NA,144475.360499928,2,16190.1051999303,4,1,20,1,23,"Germanistik",5,3,3,3,3,3
60,96,3398.11425998341,"l","speed","li1999no","1","b","l","0","0","1",19,2,700,"Thu Mar 16 14:25:22 2023",2,"eher schwer","speed","Experiment.osexp","Bild_s2_b_15.png",1080,"no",1999,"li","orangene","C:/Users/steff/Documents/Universität/Master Psychologie/SS 2022/Masterarbeit/Experiment/subject-1.csv",0,0,0,"a",-20,-40,"l","l",800.466099986807,800.466099986807,1,223015.207799966,230405.767799937,NA,150192.0428999,208596.460099914,231207.339999964,230094.301999896,13639.2736999551,NA,NA,6986.25919991173,NA,203601.148999995,230104.382899939,229281.110799988,NA,227050.654399907,NA,208869.65249991,8014.89529991522,49158.0715999007,68975.0144999707,84482.062999974,111983.525299933,132299.728899961,208869.876499986,231207.465499989,NA,223015.233999933,203057.326299953,224899.10619997,228980.429499992,226626.519499929,200520.43959999,NA,NA,NA,NA,NA,NA,NA,150191.802799935,208856.338499929,NA,227050.532899913,NA,NA,229275.007499964,6986.39929993078,230405.890699942,6986.43239994999,230094.172199955,150190.655799932,NA,NA,7995.85559999105,166387.099299929,NA,144475.360499928,3,16990.5712999171,5,1,20,1,23,"Germanistik",5,3,3,3,3,3
66.6666666666667,96,2910.81534999345,"l","speed","li1999no","1","b","l","0","1","0",20,2,700,"Thu Mar 16 14:25:22 2023",1,"eher leicht","speed","Experiment.osexp","Bild_s3_b_23.png",1080,"no",1999,"li","orangene","C:/Users/steff/Documents/Universität/Master Psychologie/SS 2022/Masterarbeit/Experiment/subject-1.csv",0,0,0,"a",-15,-35,"l","l",474.320800043643,474.320800043643,1,223015.207799966,232683.888199972,NA,150192.0428999,208596.460099914,233158.915599925,232372.828399995,13639.2736999551,NA,NA,6986.25919991173,NA,203601.148999995,232381.901199929,231533.570299973,NA,231643.229699926,NA,208869.65249991,8014.89529991522,49158.0715999007,68975.0144999707,84482.062999974,111983.525299933,132299.728899961,208869.876499986,233159.014899982,NA,223015.233999933,203057.326299953,231232.306699967,228980.429499992,226626.519499929,200520.43959999,NA,NA,NA,NA,NA,NA,NA,150191.802799935,208856.338499929,NA,231643.107999931,NA,NA,231527.555799927,6986.39929993078,232684.033299913,6986.43239994999,232372.694999911,150190.655799932,NA,NA,7995.85559999105,166387.099299929,NA,144475.360499928,4,17464.8920999607,6,1,20,1,23,"Germanistik",5,3,3,3,3,3
71.4285714285714,96,2588.44557141752,"l","speed","li1999no","1","b","l","0","1","0",21,2,700,"Thu Mar 16 14:25:22 2023",1,"eher leicht","speed","Experiment.osexp","Bild_s3_b_1.png",1080,"no",1999,"li","orangene","C:/Users/steff/Documents/Universität/Master Psychologie/SS 2022/Masterarbeit/Experiment/subject-1.csv",0,0,0,"a",-10,-30,"l","l",654.226899961941,654.226899961941,1,223015.207799966,234536.043499946,NA,150192.0428999,208596.460099914,235190.999199986,234226.008899976,13639.2736999551,NA,NA,6986.25919991173,NA,203601.148999995,234234.67819998,233476.842099917,NA,231643.229699926,NA,208869.65249991,8014.89529991522,49158.0715999007,68975.0144999707,84482.062999974,111983.525299933,132299.728899961,208869.876499986,235191.092499997,NA,223015.233999933,203057.326299953,231232.306699967,228980.429499992,226626.519499929,200520.43959999,233175.720599946,NA,NA,NA,NA,NA,NA,150191.802799935,208856.338499929,NA,231643.107999931,NA,NA,233470.868899953,6986.39929993078,234536.140299984,6986.43239994999,234225.896899938,150190.655799932,NA,NA,7995.85559999105,166387.099299929,NA,144475.360499928,5,18119.1189999226,7,1,20,1,23,"Germanistik",5,3,3,3,3,3
75,96,2329.99307499267,"l","speed","li1999no","1","o","a","0","1","0",22,2,700,"Thu Mar 16 14:25:22 2023",0,"sehr leicht","speed","Experiment.osexp","Bild_s4_o_17.png",1080,"no",1999,"li","orangene","C:/Users/steff/Documents/Universität/Master Psychologie/SS 2022/Masterarbeit/Experiment/subject-1.csv",0,0,0,"a",-5,-25,"a","a",520.825600018725,520.825600018725,1,223015.207799966,236653.332799906,NA,150192.0428999,208596.460099914,237175.082199974,236340.750699979,13639.2736999551,NA,NA,6986.25919991173,NA,203601.148999995,236348.7362999,235509.521399974,NA,235633.984999964,NA,208869.65249991,8014.89529991522,49158.0715999007,68975.0144999707,84482.062999974,111983.525299933,132299.728899961,208869.876499986,237175.181499915,NA,223015.233999933,203057.326299953,231232.306699967,228980.429499992,226626.519499929,200520.43959999,235208.331699949,NA,NA,NA,NA,NA,NA,150191.802799935,208856.338499929,NA,235633.863199968,NA,NA,235503.494299948,6986.39929993078,236653.551999945,6986.43239994999,236340.652399929,150190.655799932,NA,NA,7995.85559999105,166387.099299929,NA,144475.360499928,6,18639.9445999414,8,1,20,1,23,"Germanistik",5,3,3,3,3,3
77.7777777777778,96,2127.1846777656,"l","speed","li1999no","1","b","l","0","1","0",23,2,700,"Thu Mar 16 14:25:22 2023",0,"sehr leicht","speed","Experiment.osexp","Bild_s4_b_13.png",1080,"no",1999,"li","orangene","C:/Users/steff/Documents/Universität/Master Psychologie/SS 2022/Masterarbeit/Experiment/subject-1.csv",0,0,0,"a",0,-20,"l","l",504.717499949038,504.717499949038,1,223015.207799966,238605.759899947,NA,150192.0428999,208596.460099914,239112.209099927,238293.427299941,13639.2736999551,NA,NA,6986.25919991173,NA,203601.148999995,238304.073599982,237504.189500003,NA,235633.984999964,NA,208869.65249991,8014.89529991522,49158.0715999007,68975.0144999707,84482.062999974,111983.525299933,132299.728899961,208869.876499986,239112.451399909,NA,223015.233999933,203057.326299953,231232.306699967,228980.429499992,226626.519499929,200520.43959999,237202.920899959,NA,NA,NA,NA,NA,NA,150191.802799935,208856.338499929,NA,235633.863199968,NA,NA,237498.136499897,6986.39929993078,238605.920100003,6986.43239994999,238293.286299915,150190.655799932,NA,NA,7995.85559999105,166387.099299929,NA,144475.360499928,7,19144.6620998904,9,1,20,1,23,"Germanistik",5,3,3,3,3,3
80,96,1963.19377998589,"l","speed","li1999no","1","o","a","0","1","0",24,2,700,"Thu Mar 16 14:25:22 2023",0,"sehr leicht","speed","Experiment.osexp","Bild_s4_o_13.png",1080,"no",1999,"li","orangene","C:/Users/steff/Documents/Universität/Master Psychologie/SS 2022/Masterarbeit/Experiment/subject-1.csv",0,0,0,"a",5,-15,"a","a",487.27569996845,487.27569996845,1,223015.207799966,240574.963499908,NA,150192.0428999,208596.460099914,241063.127500005,240263.495299965,13639.2736999551,NA,NA,6986.25919991173,NA,203601.148999995,240272.28949999,239442.581199924,NA,239551.306199981,NA,208869.65249991,8014.89529991522,49158.0715999007,68975.0144999707,84482.062999974,111983.525299933,132299.728899961,208869.876499986,241063.220199896,NA,223015.233999933,203057.326299953,231232.306699967,228980.429499992,226626.519499929,200520.43959999,239141.383599956,NA,NA,NA,NA,NA,NA,150191.802799935,208856.338499929,NA,239551.186299999,NA,NA,239436.413499992,6986.39929993078,240575.083800009,6986.43239994999,240263.302000007,150190.655799932,NA,NA,7995.85559999105,166387.099299929,NA,144475.360499928,8,19631.9377998589,10,1,20,1,23,"Germanistik",5,3,3,3,3,3
81.8181818181818,96,1835.2887818103,"l","speed","li1999no","1","o","a","0","1","0",25,2,700,"Thu Mar 16 14:25:22 2023",0,"sehr leicht","speed","Experiment.osexp","Bild_s4_o_8.png",1080,"no",1999,"li","orangene","C:/Users/steff/Documents/Universität/Master Psychologie/SS 2022/Masterarbeit/Experiment/subject-1.csv",0,0,0,"a",10,-10,"a","a",556.238800054416,556.238800054416,1,223015.207799966,242521.929399925,NA,150192.0428999,208596.460099914,243079.201999935,242211.474899901,13639.2736999551,NA,NA,6986.25919991173,NA,203601.148999995,242219.877799973,241403.10180001,NA,239551.306199981,NA,208869.65249991,8014.89529991522,49158.0715999007,68975.0144999707,84482.062999974,111983.525299933,132299.728899961,208869.876499986,243079.299199977,NA,223015.233999933,203057.326299953,231232.306699967,228980.429499992,226626.519499929,200520.43959999,241100.758999935,NA,NA,NA,NA,NA,NA,150191.802799935,208856.338499929,NA,239551.186299999,NA,NA,241396.935599972,6986.39929993078,242522.14269992,6986.43239994999,242211.380199995,150190.655799932,NA,NA,7995.85559999105,166387.099299929,NA,144475.360499928,9,20188.1765999133,11,1,20,1,23,"Germanistik",5,3,3,3,3,3
83.3333333333333,96,1716.2628666653,"l","speed","li1999no","1","b","l","0","1","0",26,2,700,"Thu Mar 16 14:25:22 2023",1,"eher leicht","speed","Experiment.osexp","Bild_s3_b_5.png",1080,"no",1999,"li","orangene","C:/Users/steff/Documents/Universität/Master Psychologie/SS 2022/Masterarbeit/Experiment/subject-1.csv",0,0,0,"a",15,-5,"l","l",406.977800070308,406.977800070308,1,223015.207799966,244639.303299948,NA,150192.0428999,208596.460099914,245047.156599932,244328.733099974,13639.2736999551,NA,NA,6986.25919991173,NA,203601.148999995,244336.965099908,243410.358199966,NA,243545.649799984,NA,208869.65249991,8014.89529991522,49158.0715999007,68975.0144999707,84482.062999974,111983.525299933,132299.728899961,208869.876499986,245047.248199931,NA,223015.233999933,203057.326299953,231232.306699967,228980.429499992,226626.519499929,200520.43959999,243106.240099994,NA,NA,NA,NA,NA,NA,150191.802799935,208856.338499929,NA,243545.527999988,NA,NA,243401.753199985,6986.39929993078,244639.408499934,6986.43239994999,244328.628099989,150190.655799932,NA,NA,7995.85559999105,166387.099299929,NA,144475.360499928,10,20595.1543999836,12,1,20,1,23,"Germanistik",5,3,3,3,3,3
84.6153846153846,96,1628.16869230189,"l","speed","li1999no","1","o","a","0","1","0",27,2,700,"Thu Mar 16 14:25:22 2023",1,"eher leicht","speed","Experiment.osexp","Bild_s3_o_2.png",1080,"no",1999,"li","orangene","C:/Users/steff/Documents/Universität/Master Psychologie/SS 2022/Masterarbeit/Experiment/subject-1.csv",0,0,0,"a",20,0,"a","a",571.038599940948,571.038599940948,1,223015.207799966,246555.134099908,NA,150192.0428999,208596.460099914,247127.057899954,246241.019799956,13639.2736999551,NA,NA,6986.25919991173,NA,203601.148999995,246248.910299968,245365.62149995,NA,243545.649799984,NA,208869.65249991,8014.89529991522,49158.0715999007,68975.0144999707,84482.062999974,111983.525299933,132299.728899961,208869.876499986,247127.149599954,NA,223015.233999933,203057.326299953,231232.306699967,228980.429499992,226626.519499929,200520.43959999,245064.380700001,NA,NA,NA,NA,NA,NA,150191.802799935,208856.338499929,NA,243545.527999988,NA,NA,245359.507499961,6986.39929993078,246555.323899956,6986.43239994999,246240.91990001,150190.655799932,NA,NA,7995.85559999105,166387.099299929,NA,144475.360499928,11,21166.1929999245,13,1,20,1,23,"Germanistik",5,3,3,3,3,3
85.7142857142857,96,1557.21437141931,"l","speed","li1999no","1","b","l","0","1","0",28,2,700,"Thu Mar 16 14:25:22 2023",2,"eher schwer","speed","Experiment.osexp","Bild_s2_b_17.png",1080,"no",1999,"li","orangene","C:/Users/steff/Documents/Universität/Master Psychologie/SS 2022/Masterarbeit/Experiment/subject-1.csv",0,0,0,"a",25,5,"l","l",634.808199945837,634.808199945837,1,223015.207799966,248651.429699967,NA,150192.0428999,208596.460099914,249287.410299992,248341.561599984,13639.2736999551,NA,NA,6986.25919991173,NA,203601.148999995,248349.706599955,247445.8038999,NA,247560.659099952,NA,208869.65249991,8014.89529991522,49158.0715999007,68975.0144999707,84482.062999974,111983.525299933,132299.728899961,208869.876499986,249287.51179995,NA,223015.233999933,203057.326299953,231232.306699967,228980.429499992,226626.519499929,200520.43959999,247144.61670001,NA,NA,NA,NA,NA,NA,150191.802799935,208856.338499929,NA,247560.539799975,NA,NA,247439.749099896,6986.39929993078,248651.572100003,6986.43239994999,248341.458599898,150190.655799932,NA,NA,7995.85559999105,166387.099299929,NA,144475.360499928,12,21801.0011998704,14,1,20,1,23,"Germanistik",5,3,3,3,3,3
86.6666666666667,96,1495.88281332205,"l","speed","li1999no","1","b","l","0","1","0",29,2,700,"Thu Mar 16 14:25:22 2023",2,"eher schwer","speed","Experiment.osexp","Bild_s2_b_18.png",1080,"no",1999,"li","orangene","C:/Users/steff/Documents/Universität/Master Psychologie/SS 2022/Masterarbeit/Experiment/subject-1.csv",0,0,0,"a",30,10,"l","l",637.240999960341,637.240999960341,1,223015.207799966,250761.030799942,NA,150192.0428999,208596.460099914,251399.208199931,250451.263099909,13639.2736999551,NA,NA,6986.25919991173,NA,203601.148999995,250459.4392,249615.477899904,NA,247560.659099952,NA,208869.65249991,8014.89529991522,49158.0715999007,68975.0144999707,84482.062999974,111983.525299933,132299.728899961,208869.876499986,251399.306599982,NA,223015.233999933,203057.326299953,231232.306699967,228980.429499992,226626.519499929,200520.43959999,249314.128799946,NA,NA,NA,NA,NA,NA,150191.802799935,208856.338499929,NA,247560.539799975,NA,NA,249609.471399919,6986.39929993078,250761.142399977,6986.43239994999,250451.106299995,150190.655799932,NA,NA,7995.85559999105,166387.099299929,NA,144475.360499928,13,22438.2421998307,15,1,20,1,23,"Germanistik",5,3,3,3,3,3
87.5,96,1429.26327499299,"l","speed","li1999no","1","o","a","0","1","0",30,2,700,"Thu Mar 16 14:25:22 2023",3,"sehr schwer","speed","Experiment.osexp","Bild_s1_o_9.png",1080,"no",1999,"li","orangene","C:/Users/steff/Documents/Universität/Master Psychologie/SS 2022/Masterarbeit/Experiment/subject-1.csv",0,0,0,"a",35,15,"a","a",429.970200057141,429.970200057141,1,223015.207799966,252856.281999964,NA,150192.0428999,208596.460099914,253287.129699951,252546.389499912,13639.2736999551,NA,NA,6986.25919991173,NA,203601.148999995,252554.759599967,251730.389899923,NA,251840.989199933,NA,208869.65249991,8014.89529991522,49158.0715999007,68975.0144999707,84482.062999974,111983.525299933,132299.728899961,208869.876499986,253287.219199934,NA,223015.233999933,203057.326299953,231232.306699967,228980.429499992,226626.519499929,200520.43959999,251428.958799923,NA,NA,NA,NA,NA,NA,150191.802799935,208856.338499929,NA,251840.846699895,NA,NA,251724.313099985,6986.39929993078,252856.40109994,6986.43239994999,252546.29139998,150190.655799932,NA,NA,7995.85559999105,166387.099299929,NA,144475.360499928,14,22868.2123998879,16,1,20,1,23,"Germanistik",5,3,3,3,3,3
82.3529411764706,96,1378.00229998881,"l","speed","li1999no","0","b","l","0","0","0",31,2,700,"Thu Mar 16 14:25:22 2023",3,"sehr schwer","speed","Experiment.osexp","Bild_s1_b_2.png",1080,"no",1999,"li","orangene","C:/Users/steff/Documents/Universität/Master Psychologie/SS 2022/Masterarbeit/Experiment/subject-1.csv",0,1,0,"a",25,5,"a","a",557.826699921861,557.826699921861,1,223015.207799966,254744.527300005,NA,150192.0428999,208596.460099914,255304.011599976,254432.862099959,13639.2736999551,NA,NA,6986.25919991173,NA,203601.148999995,254442.362500005,253619.486199925,NA,251840.989199933,NA,208869.65249991,8014.89529991522,49158.0715999007,68975.0144999707,84482.062999974,111983.525299933,132299.728899961,208869.876499986,255304.259900004,NA,223015.233999933,203057.326299953,231232.306699967,228980.429499992,226626.519499929,200520.43959999,253317.89289997,NA,NA,NA,NA,NA,NA,150191.802799935,208856.338499929,NA,251840.846699895,NA,NA,253613.430999918,6986.39929993078,254744.692299981,6986.43239994999,254432.748799911,150190.655799932,NA,NA,7995.85559999105,166387.099299929,NA,144475.360499928,14,23426.0390998097,17,1,20,1,23,"Germanistik",5,3,3,3,3,3
66.6666666666667,96,48048.8730665917,"l","speed","li1999no","0","b","l","0","0","0",32,3,700,"Thu Mar 16 14:25:22 2023",1,"eher leicht","speed","Experiment.osexp","Bild_s3_b_12.png",1080,"no",1999,"li","orangene","C:/Users/steff/Documents/Universität/Master Psychologie/SS 2022/Masterarbeit/Experiment/subject-1.csv",0,0,1,"a",-10,-10,"a","a",801.806199946441,801.806199946441,1,223015.207799966,353476.524999947,333015.731599997,150192.0428999,260846.042699995,354279.241699958,353167.219599942,13639.2736999551,260961.095699924,NA,6986.25919991173,NA,255850.891699898,353175.067199976,255629.142399994,352440.22749993,251840.989199933,333142.066699918,208869.65249991,8014.89529991522,49158.0715999007,68975.0144999707,84482.062999974,111983.525299933,132299.728899961,333142.245199997,354279.354600003,352439.218199928,223015.233999933,203057.326299953,231232.306699967,228980.429499992,255327.200999949,200520.43959999,253317.89289997,NA,NA,NA,NA,NA,333134.192899917,150191.802799935,208856.338499929,352440.176400007,251840.846699895,333015.62099997,332919.538099901,255623.068899964,6986.39929993078,353476.650599972,6986.43239994999,353166.91619996,150190.655799932,260954.338099924,260898.013899918,7995.85559999105,166387.099299929,NA,144475.360499928,2,144146.619199775,3,0,25,1,23,"Germanistik",5,3,3,3,3,3
75,96,36196.4690499299,"l","speed","li1999no","1","o","a","0","1","0",33,3,700,"Thu Mar 16 14:25:22 2023",1,"eher leicht","speed","Experiment.osexp","Bild_s3_o_9.png",1080,"no",1999,"li","orangene","C:/Users/steff/Documents/Universität/Master Psychologie/SS 2022/Masterarbeit/Experiment/subject-1.csv",0,0,0,"a",-5,-5,"a","a",639.256999944337,639.256999944337,1,223015.207799966,355670.966599951,333015.731599997,150192.0428999,260846.042699995,356311.067399918,355361.292799935,13639.2736999551,260961.095699924,NA,6986.25919991173,NA,255850.891699898,355369.069400011,354609.088799916,352440.22749993,251840.989199933,333142.066699918,208869.65249991,8014.89529991522,49158.0715999007,68975.0144999707,84482.062999974,111983.525299933,132299.728899961,333142.245199997,356311.157899909,352439.218199928,223015.233999933,203057.326299953,231232.306699967,354308.192499913,255327.200999949,200520.43959999,253317.89289997,NA,NA,NA,NA,NA,333134.192899917,150191.802799935,208856.338499929,352440.176400007,251840.846699895,333015.62099997,332919.538099901,354603.05549996,6986.39929993078,355671.183999977,6986.43239994999,355361.198599916,150190.655799932,260954.338099924,260898.013899918,7995.85559999105,166387.099299929,NA,144475.360499928,3,144785.876199719,4,0,25,1,23,"Germanistik",5,3,3,3,3,3
60,96,29031.9392199395,"l","speed","li1999no","0","o","a","0","0","0",34,3,700,"Thu Mar 16 14:25:22 2023",1,"eher leicht","speed","Experiment.osexp","Bild_s3_o_3.png",1080,"no",1999,"li","orangene","C:/Users/steff/Documents/Universität/Master Psychologie/SS 2022/Masterarbeit/Experiment/subject-1.csv",0,1,0,"a",-15,-15,"l","l",373.819899978116,373.819899978116,1,223015.207799966,357728.588099941,333015.731599997,150192.0428999,260846.042699995,358103.435899946,357418.850699905,13639.2736999551,260961.095699924,NA,6986.25919991173,NA,255850.891699898,357426.792999962,356628.428599914,352440.22749993,251840.989199933,333142.066699918,208869.65249991,8014.89529991522,49158.0715999007,68975.0144999707,84482.062999974,111983.525299933,132299.728899961,333142.245199997,358103.565600002,352439.218199928,223015.233999933,203057.326299953,231232.306699967,354308.192499913,255327.200999949,200520.43959999,356327.259399928,NA,NA,NA,NA,NA,333134.192899917,150191.802799935,208856.338499929,352440.176400007,251840.846699895,333015.62099997,332919.538099901,356622.437499929,6986.39929993078,357728.700699983,6986.43239994999,357418.753699982,150190.655799932,260954.338099924,260898.013899918,7995.85559999105,166387.099299929,NA,144475.360499928,3,145159.696099698,5,0,25,1,23,"Germanistik",5,3,3,3,3,3
50,96,24279.4801166165,"l","speed","li1999no","0","o","a","0","0","0",35,3,700,"Thu Mar 16 14:25:22 2023",1,"eher leicht","speed","Experiment.osexp","Bild_s3_o_12.png",1080,"no",1999,"li","orangene","C:/Users/steff/Documents/Universität/Master Psychologie/SS 2022/Masterarbeit/Experiment/subject-1.csv",0,1,0,"a",-25,-25,"l","l",517.184600001201,517.184600001201,1,223015.207799966,359521.058899933,333015.731599997,150192.0428999,260846.042699995,360039.401899907,359211.290200008,13639.2736999551,260961.095699924,NA,6986.25919991173,NA,255850.891699898,359219.443599926,358430.29509997,352440.22749993,251840.989199933,333142.066699918,208869.65249991,8014.89529991522,49158.0715999007,68975.0144999707,84482.062999974,111983.525299933,132299.728899961,333142.245199997,360039.515399956,352439.218199928,223015.233999933,203057.326299953,231232.306699967,354308.192499913,358128.929400002,200520.43959999,356327.259399928,NA,NA,NA,NA,NA,333134.192899917,150191.802799935,208856.338499929,352440.176400007,251840.846699895,333015.62099997,332919.538099901,358424.163399963,6986.39929993078,359521.280699992,6986.43239994999,359211.189799942,150190.655799932,260954.338099924,260898.013899918,7995.85559999105,166387.099299929,NA,144475.360499928,3,145676.880699699,6,0,25,1,23,"Germanistik",5,3,3,3,3,3
57.1428571428571,96,20930.1741856782,"l","speed","li1999no","1","o","a","0","0","1",36,3,700,"Thu Mar 16 14:25:22 2023",1,"eher leicht","speed","Experiment.osexp","Bild_s3_o_22.png",1080,"no",1999,"li","orangene","C:/Users/steff/Documents/Universität/Master Psychologie/SS 2022/Masterarbeit/Experiment/subject-1.csv",0,0,0,"a",-35,-35,"a","a",834.338600048795,834.338600048795,1,223015.207799966,361428.031599964,333015.731599997,150192.0428999,260846.042699995,362263.272099895,361117.602899903,13639.2736999551,260961.095699924,NA,6986.25919991173,NA,255850.891699898,361126.212699921,360356.013899902,352440.22749993,251840.989199933,333142.066699918,208869.65249991,8014.89529991522,49158.0715999007,68975.0144999707,84482.062999974,111983.525299933,132299.728899961,333142.245199997,362263.392099994,352439.218199928,223015.233999933,203057.326299953,231232.306699967,354308.192499913,360055.052699987,200520.43959999,356327.259399928,NA,NA,NA,NA,NA,333134.192899917,150191.802799935,208856.338499929,352440.176400007,251840.846699895,333015.62099997,332919.538099901,360349.989199894,6986.39929993078,361428.130699904,6986.43239994999,361117.494400009,150190.655799932,260954.338099924,260898.013899918,7995.85559999105,166387.099299929,NA,144475.360499928,4,146511.219299748,7,0,25,1,23,"Germanistik",5,3,3,3,3,3
62.5,96,18408.5654999653,"l","speed","li1999no","1","b","l","0","0","1",37,3,700,"Thu Mar 16 14:25:22 2023",1,"eher leicht","speed","Experiment.osexp","Bild_s3_b_1.png",1080,"no",1999,"li","orangene","C:/Users/steff/Documents/Universität/Master Psychologie/SS 2022/Masterarbeit/Experiment/subject-1.csv",0,0,0,"a",-45,-45,"l","l",757.304699975066,757.304699975066,1,223015.207799966,363680.934799952,333015.731599997,150192.0428999,260846.042699995,364439.078499912,363370.457099983,13639.2736999551,260961.095699924,NA,6986.25919991173,NA,255850.891699898,363379.133099923,362581.140499911,352440.22749993,251840.989199933,333142.066699918,208869.65249991,8014.89529991522,49158.0715999007,68975.0144999707,84482.062999974,111983.525299933,132299.728899961,333142.245199997,364439.197300002,352439.218199928,223015.233999933,203057.326299953,362279.714799952,354308.192499913,360055.052699987,200520.43959999,356327.259399928,NA,NA,NA,NA,NA,333134.192899917,150191.802799935,208856.338499929,352440.176400007,251840.846699895,333015.62099997,332919.538099901,362574.99559992,6986.39929993078,363681.147899944,6986.43239994999,363370.276100002,150190.655799932,260954.338099924,260898.013899918,7995.85559999105,166387.099299929,NA,144475.360499928,5,147268.523999723,8,0,25,1,23,"Germanistik",5,3,3,3,3,3
55.5555555555556,96,16406.090299974,"l","speed","li1999no","0","o","a","0","0","0",38,3,700,"Thu Mar 16 14:25:22 2023",1,"eher leicht","speed","Experiment.osexp","Bild_s3_o_16.png",1080,"no",1999,"li","orangene","C:/Users/steff/Documents/Universität/Master Psychologie/SS 2022/Masterarbeit/Experiment/subject-1.csv",0,1,0,"a",-55,-55,"l","l",386.288700043224,386.288700043224,1,223015.207799966,365844.060699921,333015.731599997,150192.0428999,260846.042699995,366231.200499926,365533.654899918,13639.2736999551,260961.095699924,NA,6986.25919991173,NA,255850.891699898,365542.102999985,364769.580999971,352440.22749993,251840.989199933,333142.066699918,208869.65249991,8014.89529991522,49158.0715999007,68975.0144999707,84482.062999974,111983.525299933,132299.728899961,333142.245199997,366231.322999927,352439.218199928,223015.233999933,203057.326299953,364467.37139998,354308.192499913,360055.052699987,200520.43959999,356327.259399928,NA,NA,NA,NA,NA,333134.192899917,150191.802799935,208856.338499929,352440.176400007,251840.846699895,333015.62099997,332919.538099901,364763.053299976,6986.39929993078,365844.170399942,6986.43239994999,365533.553799963,150190.655799932,260954.338099924,260898.013899918,7995.85559999105,166387.099299929,NA,144475.360499928,5,147654.812699766,9,0,25,1,23,"Germanistik",5,3,3,3,3,3
60,96,14821.5036099777,"l","speed","li1999no","1","o","a","0","1","0",39,3,700,"Thu Mar 16 14:25:22 2023",1,"eher leicht","speed","Experiment.osexp","Bild_s3_o_2.png",1080,"no",1999,"li","orangene","C:/Users/steff/Documents/Universität/Master Psychologie/SS 2022/Masterarbeit/Experiment/subject-1.csv",0,0,0,"a",-50,-50,"a","a",560.223400010727,560.223400010727,1,223015.207799966,367702.059699921,333015.731599997,150192.0428999,260846.042699995,368263.411299908,367388.210799894,13639.2736999551,260961.095699924,NA,6986.25919991173,NA,255850.891699898,367396.496600006,366549.1856999,352440.22749993,251840.989199933,333142.066699918,208869.65249991,8014.89529991522,49158.0715999007,68975.0144999707,84482.062999974,111983.525299933,132299.728899961,333142.245199997,368263.514299993,352439.218199928,223015.233999933,203057.326299953,364467.37139998,354308.192499913,366248.051199946,200520.43959999,356327.259399928,NA,NA,NA,NA,NA,333134.192899917,150191.802799935,208856.338499929,352440.176400007,251840.846699895,333015.62099997,332919.538099901,366543.089199928,6986.39929993078,367702.252299991,6986.43239994999,367388.103500009,150190.655799932,260954.338099924,260898.013899918,7995.85559999105,166387.099299929,NA,144475.360499928,6,148215.036099777,10,0,25,1,23,"Germanistik",5,3,3,3,3,3
54.5454545454545,96,13526.8673727035,"l","speed","li1999no","0","o","a","0","0","0",40,3,700,"Thu Mar 16 14:25:22 2023",2,"eher schwer","speed","Experiment.osexp","Bild_s2_o_1.png",1080,"no",1999,"li","orangene","C:/Users/steff/Documents/Universität/Master Psychologie/SS 2022/Masterarbeit/Experiment/subject-1.csv",0,1,0,"a",-60,-60,"l","l",580.504999961704,580.504999961704,1,223015.207799966,369841.812799918,333015.731599997,150192.0428999,260846.042699995,370423.071199912,369530.809599906,13639.2736999551,260961.095699924,NA,6986.25919991173,NA,255850.891699898,369539.159699925,368588.523599901,368707.928999909,251840.989199933,333142.066699918,208869.65249991,8014.89529991522,49158.0715999007,68975.0144999707,84482.062999974,111983.525299933,132299.728899961,333142.245199997,370423.198199947,352439.218199928,223015.233999933,203057.326299953,364467.37139998,354308.192499913,366248.051199946,200520.43959999,368286.901899963,NA,NA,NA,NA,NA,333134.192899917,150191.802799935,208856.338499929,368707.802499994,251840.846699895,333015.62099997,332919.538099901,368582.361699897,6986.39929993078,369841.924799955,6986.43239994999,369530.699900002,150190.655799932,260954.338099924,260898.013899918,7995.85559999105,166387.099299929,NA,144475.360499928,6,148795.541099738,11,0,25,1,23,"Germanistik",5,3,3,3,3,3
58.3333333333333,96,12468.2452666457,"l","speed","li1999no","1","o","a","0","0","1",41,3,700,"Thu Mar 16 14:25:22 2023",2,"eher schwer","speed","Experiment.osexp","Bild_s2_o_12.png",1080,"no",1999,"li","orangene","C:/Users/steff/Documents/Universität/Master Psychologie/SS 2022/Masterarbeit/Experiment/subject-1.csv",0,0,0,"a",-70,-70,"a","a",823.402100009844,823.402100009844,1,223015.207799966,371822.942400002,333015.731599997,150192.0428999,260846.042699995,372647.322600009,371511.937399977,13639.2736999551,260961.095699924,NA,6986.25919991173,NA,255850.891699898,371520.587399951,370741.403699969,368707.928999909,251840.989199933,333142.066699918,208869.65249991,8014.89529991522,49158.0715999007,68975.0144999707,84482.062999974,111983.525299933,132299.728899961,333142.245199997,372647.448199918,352439.218199928,223015.233999933,203057.326299953,364467.37139998,354308.192499913,370439.626799896,200520.43959999,368286.901899963,NA,NA,NA,NA,NA,333134.192899917,150191.802799935,208856.338499929,368707.802499994,251840.846699895,333015.62099997,332919.538099901,370735.3076,6986.39929993078,371823.057399946,6986.43239994999,371511.837199912,150190.655799932,260954.338099924,260898.013899918,7995.85559999105,166387.099299929,NA,144475.360499928,7,149618.943199748,12,0,25,1,23,"Germanistik",5,3,3,3,3,3
61.5384615384615,96,11564.2465999744,"l","speed","li1999no","1","b","l","0","0","1",42,3,700,"Thu Mar 16 14:25:22 2023",2,"eher schwer","speed","Experiment.osexp","Bild_s2_b_23.png",1080,"no",1999,"li","orangene","C:/Users/steff/Documents/Universität/Master Psychologie/SS 2022/Masterarbeit/Experiment/subject-1.csv",0,0,0,"a",-80,-80,"l","l",716.262599918991,716.262599918991,1,223015.207799966,374138.071599999,333015.731599997,150192.0428999,260846.042699995,374855.226699961,373828.468199936,13639.2736999551,260961.095699924,NA,6986.25919991173,NA,255850.891699898,373836.767399916,372978.33209997,368707.928999909,251840.989199933,333142.066699918,208869.65249991,8014.89529991522,49158.0715999007,68975.0144999707,84482.062999974,111983.525299933,132299.728899961,333142.245199997,374855.345799937,352439.218199928,223015.233999933,203057.326299953,372676.755899913,354308.192499913,370439.626799896,200520.43959999,368286.901899963,NA,NA,NA,NA,NA,333134.192899917,150191.802799935,208856.338499929,368707.802499994,251840.846699895,333015.62099997,332919.538099901,372972.004399984,6986.39929993078,374138.224900002,6986.43239994999,373828.301799949,150190.655799932,260954.338099924,260898.013899918,7995.85559999105,166387.099299929,NA,144475.360499928,8,150335.205799667,13,0,25,1,23,"Germanistik",5,3,3,3,3,3
64.2857142857143,96,10765.176385691,"l","speed","li1999no","1","b","l","0","1","0",43,3,700,"Thu Mar 16 14:25:22 2023",2,"eher schwer","speed","Experiment.osexp","Bild_s2_b_6.png",1080,"no",1999,"li","orangene","C:/Users/steff/Documents/Universität/Master Psychologie/SS 2022/Masterarbeit/Experiment/subject-1.csv",0,0,0,"a",-75,-75,"l","l",377.2636000067,377.2636000067,1,223015.207799966,376349.090099917,333015.731599997,150192.0428999,260846.042699995,376727.625399944,376039.09169999,13639.2736999551,260961.095699924,NA,6986.25919991173,NA,255850.891699898,376046.997700003,375184.852799983,368707.928999909,251840.989199933,333142.066699918,208869.65249991,8014.89529991522,49158.0715999007,68975.0144999707,84482.062999974,111983.525299933,132299.728899961,333142.245199997,376727.732199943,352439.218199928,223015.233999933,203057.326299953,374883.55509995,354308.192499913,370439.626799896,200520.43959999,368286.901899963,NA,NA,NA,NA,NA,333134.192899917,150191.802799935,208856.338499929,368707.802499994,251840.846699895,333015.62099997,332919.538099901,375178.881299915,6986.39929993078,376349.198599928,6986.43239994999,376038.990099914,150190.655799932,260954.338099924,260898.013899918,7995.85559999105,166387.099299929,NA,144475.360499928,9,150712.469399674,14,0,25,1,23,"Germanistik",5,3,3,3,3,3
66.6666666666667,96,10081.0356733156,"l","speed","li1999no","1","o","a","0","1","0",44,3,700,"Thu Mar 16 14:25:22 2023",2,"eher schwer","speed","Experiment.osexp","Bild_s2_o_19.png",1080,"no",1999,"li","orangene","C:/Users/steff/Documents/Universität/Master Psychologie/SS 2022/Masterarbeit/Experiment/subject-1.csv",0,0,0,"a",-70,-70,"a","a",503.065700060688,503.065700060688,1,223015.207799966,378159.213499981,333015.731599997,150192.0428999,260846.042699995,378663.439499913,377848.869799985,13639.2736999551,260961.095699924,NA,6986.25919991173,NA,255850.891699898,377857.479500002,377055.417199968,368707.928999909,251840.989199933,333142.066699918,208869.65249991,8014.89529991522,49158.0715999007,68975.0144999707,84482.062999974,111983.525299933,132299.728899961,333142.245199997,378663.533699932,352439.218199928,223015.233999933,203057.326299953,374883.55509995,354308.192499913,370439.626799896,200520.43959999,376753.815899952,NA,NA,NA,NA,NA,333134.192899917,150191.802799935,208856.338499929,368707.802499994,251840.846699895,333015.62099997,332919.538099901,377049.090399989,6986.39929993078,378159.387199907,6986.43239994999,377848.764599999,150190.655799932,260954.338099924,260898.013899918,7995.85559999105,166387.099299929,NA,144475.360499928,10,151215.535099735,15,0,25,1,23,"Germanistik",5,3,3,3,3,3
68.75,96,9490.16680623754,"l","speed","li1999no","1","b","l","0","1","0",45,3,700,"Thu Mar 16 14:25:22 2023",2,"eher schwer","speed","Experiment.osexp","Bild_s2_b_15.png",1080,"no",1999,"li","orangene","C:/Users/steff/Documents/Universität/Master Psychologie/SS 2022/Masterarbeit/Experiment/subject-1.csv",0,0,0,"a",-65,-65,"l","l",627.133800066076,627.133800066076,1,223015.207799966,380083.24009995,333015.731599997,150192.0428999,260846.042699995,380711.453199969,379772.300599958,13639.2736999551,260961.095699924,NA,6986.25919991173,NA,255850.891699898,379780.823999899,378982.736299979,368707.928999909,251840.989199933,333142.066699918,208869.65249991,8014.89529991522,49158.0715999007,68975.0144999707,84482.062999974,111983.525299933,132299.728899961,333142.245199997,380711.544499965,352439.218199928,223015.233999933,203057.326299953,374883.55509995,354308.192499913,370439.626799896,200520.43959999,378681.050599902,NA,NA,NA,NA,NA,333134.192899917,150191.802799935,208856.338499929,368707.802499994,251840.846699895,333015.62099997,332919.538099901,378976.458399906,6986.39929993078,380083.342799917,6986.43239994999,379772.189499927,150190.655799932,260954.338099924,260898.013899918,7995.85559999105,166387.099299929,NA,144475.360499928,11,151842.668899801,16,0,25,1,23,"Germanistik",5,3,3,3,3,3
70.5882352941177,96,8968.5644941021,"l","speed","li1999no","1","o","a","0","1","0",46,3,700,"Thu Mar 16 14:25:22 2023",2,"eher schwer","speed","Experiment.osexp","Bild_s2_o_3.png",1080,"no",1999,"li","orangene","C:/Users/steff/Documents/Universität/Master Psychologie/SS 2022/Masterarbeit/Experiment/subject-1.csv",0,0,0,"a",-60,-60,"a","a",622.927499935031,622.927499935031,1,223015.207799966,382135.459199897,333015.731599997,150192.0428999,260846.042699995,382759.374599904,381825.586799998,13639.2736999551,260961.095699924,NA,6986.25919991173,NA,255850.891699898,381833.730299957,381041.51869996,368707.928999909,251840.989199933,333142.066699918,208869.65249991,8014.89529991522,49158.0715999007,68975.0144999707,84482.062999974,111983.525299933,132299.728899961,333142.245199997,382759.476099978,352439.218199928,223015.233999933,203057.326299953,374883.55509995,354308.192499913,370439.626799896,200520.43959999,380739.506399957,NA,NA,NA,NA,NA,333134.192899917,150191.802799935,208856.338499929,368707.802499994,251840.846699895,333015.62099997,332919.538099901,381035.449999967,6986.39929993078,382135.559899965,6986.43239994999,381825.489599956,150190.655799932,260954.338099924,260898.013899918,7995.85559999105,166387.099299929,NA,144475.360499928,12,152465.596399736,17,0,25,1,23,"Germanistik",5,3,3,3,3,3
72.2222222222222,96,8500.16024998493,"l","speed","li1999no","1","b","l","0","1","0",47,3,700,"Thu Mar 16 14:25:22 2023",2,"eher schwer","speed","Experiment.osexp","Bild_s2_b_18.png",1080,"no",1999,"li","orangene","C:/Users/steff/Documents/Universität/Master Psychologie/SS 2022/Masterarbeit/Experiment/subject-1.csv",0,0,0,"a",-55,-55,"l","l",537.28809999302,537.28809999302,1,223015.207799966,384189.092999906,333015.731599997,150192.0428999,260846.042699995,384727.164299926,383878.898700001,13639.2736999551,260961.095699924,NA,6986.25919991173,NA,255850.891699898,383887.275899993,383087.682899903,368707.928999909,251840.989199933,333142.066699918,208869.65249991,8014.89529991522,49158.0715999007,68975.0144999707,84482.062999974,111983.525299933,132299.728899961,333142.245199997,384727.257799939,352439.218199928,223015.233999933,203057.326299953,374883.55509995,354308.192499913,370439.626799896,200520.43959999,382786.332999938,NA,NA,NA,NA,NA,333134.192899917,150191.802799935,208856.338499929,368707.802499994,251840.846699895,333015.62099997,332919.538099901,383081.601799931,6986.39929993078,384189.192199963,6986.43239994999,383878.797799931,150190.655799932,260954.338099924,260898.013899918,7995.85559999105,166387.099299929,NA,144475.360499928,13,153002.884499729,18,0,25,1,23,"Germanistik",5,3,3,3,3,3
68.4210526315789,96,8081.41800525329,"l","speed","li1999no","0","o","a","0","0","0",48,3,700,"Thu Mar 16 14:25:22 2023",3,"sehr schwer","speed","Experiment.osexp","Bild_s1_o_2.png",1080,"no",1999,"li","orangene","C:/Users/steff/Documents/Universität/Master Psychologie/SS 2022/Masterarbeit/Experiment/subject-1.csv",0,1,0,"a",-65,-65,"l","l",544.057600083761,544.057600083761,1,223015.207799966,386198.216899997,333015.731599997,150192.0428999,260846.042699995,386743.264799938,385888.675999944,13639.2736999551,260961.095699924,NA,6986.25919991173,NA,255850.891699898,385896.8933,385062.752499944,385172.909999965,251840.989199933,333142.066699918,208869.65249991,8014.89529991522,49158.0715999007,68975.0144999707,84482.062999974,111983.525299933,132299.728899961,333142.245199997,386743.382899905,352439.218199928,223015.233999933,203057.326299953,374883.55509995,354308.192499913,370439.626799896,200520.43959999,384761.047899956,NA,NA,NA,NA,NA,333134.192899917,150191.802799935,208856.338499929,385172.78439994,251840.846699895,333015.62099997,332919.538099901,385056.512099924,6986.39929993078,386198.404699913,6986.43239994999,385888.574699988,150190.655799932,260954.338099924,260898.013899918,7995.85559999105,166387.099299929,NA,144475.360499928,13,153546.942099812,19,0,25,1,23,"Germanistik",5,3,3,3,3,3
65,96,7703.80766498856,"l","speed","li1999no","0","o","a","0","0","0",49,3,700,"Thu Mar 16 14:25:22 2023",3,"sehr schwer","speed","Experiment.osexp","Bild_s1_o_4.png",1080,"no",1999,"li","orangene","C:/Users/steff/Documents/Universität/Master Psychologie/SS 2022/Masterarbeit/Experiment/subject-1.csv",0,1,0,"a",-75,-75,"l","l",529.211199958809,529.211199958809,1,223015.207799966,388165.15669995,333015.731599997,150192.0428999,260846.042699995,388695.402199985,387854.647799977,13639.2736999551,260961.095699924,NA,6986.25919991173,NA,255850.891699898,387863.320200006,387060.906699975,385172.909999965,251840.989199933,333142.066699918,208869.65249991,8014.89529991522,49158.0715999007,68975.0144999707,84482.062999974,111983.525299933,132299.728899961,333142.245199997,388695.525699994,352439.218199928,223015.233999933,203057.326299953,374883.55509995,354308.192499913,386759.465699899,200520.43959999,384761.047899956,NA,NA,NA,NA,NA,333134.192899917,150191.802799935,208856.338499929,385172.78439994,251840.846699895,333015.62099997,332919.538099901,387054.622999975,6986.39929993078,388165.262599941,6986.43239994999,387854.550099932,150190.655799932,260954.338099924,260898.013899918,7995.85559999105,166387.099299929,NA,144475.360499928,13,154076.153299771,20,0,25,1,23,"Germanistik",5,3,3,3,3,3
66.6666666666667,96,7366.60012379954,"l","speed","li1999no","1","b","l","0","1","0",50,3,700,"Thu Mar 16 14:25:22 2023",3,"sehr schwer","speed","Experiment.osexp","Bild_s1_b_14.png",1080,"no",1999,"li","orangene","C:/Users/steff/Documents/Universität/Master Psychologie/SS 2022/Masterarbeit/Experiment/subject-1.csv",0,0,0,"a",-70,-70,"l","l",622.449300019071,622.449300019071,1,223015.207799966,390215.900399955,333015.731599997,150192.0428999,260846.042699995,390839.308199938,389905.512799975,13639.2736999551,260961.095699924,NA,6986.25919991173,NA,255850.891699898,389913.72489999,389022.120499983,385172.909999965,251840.989199933,333142.066699918,208869.65249991,8014.89529991522,49158.0715999007,68975.0144999707,84482.062999974,111983.525299933,132299.728899961,333142.245199997,390839.403099963,352439.218199928,223015.233999933,203057.326299953,374883.55509995,354308.192499913,388720.425399952,200520.43959999,384761.047899956,NA,NA,NA,NA,NA,333134.192899917,150191.802799935,208856.338499929,385172.78439994,251840.846699895,333015.62099997,332919.538099901,389015.904799919,6986.39929993078,390216.032199911,6986.43239994999,389905.402999953,150190.655799932,260954.338099924,260898.013899918,7995.85559999105,166387.099299929,NA,144475.360499928,14,154698.60259979,21,0,25,1,23,"Germanistik",5,3,3,3,3,3
68.1818181818182,96,7058.89265453549,"l","speed","li1999no","1","b","l","0","1","0",51,3,700,"Thu Mar 16 14:25:22 2023",3,"sehr schwer","speed","Experiment.osexp","Bild_s1_b_23.png",1080,"no",1999,"li","orangene","C:/Users/steff/Documents/Universität/Master Psychologie/SS 2022/Masterarbeit/Experiment/subject-1.csv",0,0,0,"a",-65,-65,"l","l",597.035799990408,597.035799990408,1,223015.207799966,392241.3487999,333015.731599997,150192.0428999,260846.042699995,392839.29449995,391931.407699944,13639.2736999551,260961.095699924,NA,6986.25919991173,NA,255850.891699898,391939.721199917,391158.729799907,385172.909999965,251840.989199933,333142.066699918,208869.65249991,8014.89529991522,49158.0715999007,68975.0144999707,84482.062999974,111983.525299933,132299.728899961,333142.245199997,392839.390599984,352439.218199928,223015.233999933,203057.326299953,374883.55509995,354308.192499913,388720.425399952,200520.43959999,390857.003399986,NA,NA,NA,NA,NA,333134.192899917,150191.802799935,208856.338499929,385172.78439994,251840.846699895,333015.62099997,332919.538099901,391152.650499949,6986.39929993078,392241.451099981,6986.43239994999,391931.3102999,150190.655799932,260954.338099924,260898.013899918,7995.85559999105,166387.099299929,NA,144475.360499928,15,155295.638399781,22,0,25,1,23,"Germanistik",5,3,3,3,3,3
65.2173913043478,96,6776.76376086437,"l","speed","li1999no","0","o","a","0","0","0",52,3,700,"Thu Mar 16 14:25:22 2023",3,"sehr schwer","speed","Experiment.osexp","Bild_s1_o_8.png",1080,"no",1999,"li","orangene","C:/Users/steff/Documents/Universität/Master Psychologie/SS 2022/Masterarbeit/Experiment/subject-1.csv",0,1,0,"a",-75,-75,"l","l",569.928100099787,569.928100099787,1,223015.207799966,394252.356799901,333015.731599997,150192.0428999,260846.042699995,394823.275699979,393942.275899928,13639.2736999551,260961.095699924,NA,6986.25919991173,NA,255850.891699898,393950.307499967,393176.918199984,385172.909999965,251840.989199933,333142.066699918,208869.65249991,8014.89529991522,49158.0715999007,68975.0144999707,84482.062999974,111983.525299933,132299.728899961,333142.245199997,394823.405499919,352439.218199928,223015.233999933,203057.326299953,374883.55509995,354308.192499913,388720.425399952,200520.43959999,392874.260199955,NA,NA,NA,NA,NA,333134.192899917,150191.802799935,208856.338499929,385172.78439994,251840.846699895,333015.62099997,332919.538099901,393170.619599987,6986.39929993078,394252.555499901,6986.43239994999,393942.181399907,150190.655799932,260954.338099924,260898.013899918,7995.85559999105,166387.099299929,NA,144475.360499928,15,155865.566499881,23,0,25,1,23,"Germanistik",5,3,3,3,3,3
62.5,96,6523.75861666223,"l","speed","li1999no","0","o","a","0","0","0",53,3,700,"Thu Mar 16 14:25:22 2023",3,"sehr schwer","speed","Experiment.osexp","Bild_s1_o_22.png",1080,"no",1999,"li","orangene","C:/Users/steff/Documents/Universität/Master Psychologie/SS 2022/Masterarbeit/Experiment/subject-1.csv",0,0,1,"a",-85,-85,"l","l",704.640300013125,704.640300013125,1,223015.207799966,396213.730199961,333015.731599997,150192.0428999,260846.042699995,396919.40689995,395903.9435999,13639.2736999551,260961.095699924,NA,6986.25919991173,NA,255850.891699898,395912.150499993,395140.600999934,385172.909999965,251840.989199933,333142.066699918,208869.65249991,8014.89529991522,49158.0715999007,68975.0144999707,84482.062999974,111983.525299933,132299.728899961,333142.245199997,396919.532499975,352439.218199928,223015.233999933,203057.326299953,374883.55509995,354308.192499913,394839.279799955,200520.43959999,392874.260199955,NA,NA,NA,NA,NA,333134.192899917,150191.802799935,208856.338499929,385172.78439994,251840.846699895,333015.62099997,332919.538099901,395134.475299972,6986.39929993078,396213.85629999,6986.43239994999,395903.843599954,150190.655799932,260954.338099924,260898.013899918,7995.85559999105,166387.099299929,NA,144475.360499928,15,156570.206799894,24,0,25,1,23,"Germanistik",5,3,3,3,3,3
60,96,6287.32753599528,"l","speed","li1999no","0","o","a","0","0","0",54,3,700,"Thu Mar 16 14:25:22 2023",3,"sehr schwer","speed","Experiment.osexp","Bild_s1_o_9.png",1080,"no",1999,"li","orangene","C:/Users/steff/Documents/Universität/Master Psychologie/SS 2022/Masterarbeit/Experiment/subject-1.csv",0,1,0,"a",-95,-95,"l","l",612.981599988416,612.981599988416,1,223015.207799966,398353.398300009,333015.731599997,150192.0428999,260846.042699995,398967.339999974,398041.720499983,13639.2736999551,260961.095699924,NA,6986.25919991173,NA,255850.891699898,398051.602299907,397250.78100001,385172.909999965,251840.989199933,333142.066699918,208869.65249991,8014.89529991522,49158.0715999007,68975.0144999707,84482.062999974,111983.525299933,132299.728899961,333142.245199997,398967.459599953,352439.218199928,223015.233999933,203057.326299953,374883.55509995,396948.897699942,394839.279799955,200520.43959999,392874.260199955,NA,NA,NA,NA,NA,333134.192899917,150191.802799935,208856.338499929,385172.78439994,251840.846699895,333015.62099997,332919.538099901,397244.330499903,6986.39929993078,398353.505100007,6986.43239994999,398041.6177999,150190.655799932,260954.338099924,260898.013899918,7995.85559999105,166387.099299929,NA,144475.360499928,15,157183.188399882,25,0,25,1,23,"Germanistik",5,3,3,3,3,3
57.6923076923077,96,6080.56420768844,"l","speed","li1999no","0","b","l","0","0","0",55,3,700,"Thu Mar 16 14:25:22 2023",3,"sehr schwer","speed","Experiment.osexp","Bild_s1_b_2.png",1080,"no",1999,"li","orangene","C:/Users/steff/Documents/Universität/Master Psychologie/SS 2022/Masterarbeit/Experiment/subject-1.csv",0,0,1,"a",-105,-105,"a","a",911.481000017375,911.481000017375,1,223015.207799966,400342.913699918,333015.731599997,150192.0428999,260846.042699995,401255.271199974,400032.116899965,13639.2736999551,260961.095699924,NA,6986.25919991173,NA,255850.891699898,400041.275599971,399286.035900004,385172.909999965,251840.989199933,333142.066699918,208869.65249991,8014.89529991522,49158.0715999007,68975.0144999707,84482.062999974,111983.525299933,132299.728899961,333142.245199997,401255.390099948,352439.218199928,223015.233999933,203057.326299953,374883.55509995,396948.897699942,398983.247699915,200520.43959999,392874.260199955,NA,NA,NA,NA,NA,333134.192899917,150191.802799935,208856.338499929,385172.78439994,251840.846699895,333015.62099997,332919.538099901,399279.358799919,6986.39929993078,400343.014299986,6986.43239994999,400032.001999905,150190.655799932,260954.338099924,260898.013899918,7995.85559999105,166387.099299929,NA,144475.360499928,15,158094.669399899,26,0,25,1,23,"Germanistik",5,3,3,3,3,3
59.2592592592593,96,5884.13162962361,"l","speed","li1999no","1","b","l","0","0","1",56,3,700,"Thu Mar 16 14:25:22 2023",3,"sehr schwer","speed","Experiment.osexp","Bild_s1_b_25.png",1080,"no",1999,"li","orangene","C:/Users/steff/Documents/Universität/Master Psychologie/SS 2022/Masterarbeit/Experiment/subject-1.csv",0,0,0,"a",-115,-115,"l","l",776.884599938057,776.884599938057,1,223015.207799966,402781.526000006,333015.731599997,150192.0428999,260846.042699995,403559.329499956,402471.688999911,13639.2736999551,260961.095699924,NA,6986.25919991173,NA,255850.891699898,402479.708299972,401585.959999938,401700.94219991,251840.989199933,333142.066699918,208869.65249991,8014.89529991522,49158.0715999007,68975.0144999707,84482.062999974,111983.525299933,132299.728899961,333142.245199997,403559.445499908,352439.218199928,223015.233999933,203057.326299953,374883.55509995,401284.89739995,398983.247699915,200520.43959999,392874.260199955,NA,NA,NA,NA,NA,333134.192899917,150191.802799935,208856.338499929,401700.820299913,251840.846699895,333015.62099997,332919.538099901,401579.872799921,6986.39929993078,402781.627599965,6986.43239994999,402471.587999957,150190.655799932,260954.338099924,260898.013899918,7995.85559999105,166387.099299929,NA,144475.360499928,16,158871.553999837,27,0,25,1,23,"Germanistik",5,3,3,3,3,3
60.7142857142857,96,5691.69110356597,"l","speed","li1999no","1","b","l","0","1","0",57,3,700,"Thu Mar 16 14:25:22 2023",3,"sehr schwer","speed","Experiment.osexp","Bild_s1_b_19.png",1080,"no",1999,"li","orangene","C:/Users/steff/Documents/Universität/Master Psychologie/SS 2022/Masterarbeit/Experiment/subject-1.csv",0,0,0,"a",-110,-110,"l","l",495.796900009736,495.796900009736,1,223015.207799966,404950.591499917,333015.731599997,150192.0428999,260846.042699995,405447.314499994,404640.077599906,13639.2736999551,260961.095699924,NA,6986.25919991173,NA,255850.891699898,404648.44749996,403881.757900002,401700.94219991,251840.989199933,333142.066699918,208869.65249991,8014.89529991522,49158.0715999007,68975.0144999707,84482.062999974,111983.525299933,132299.728899961,333142.245199997,405447.408499895,352439.218199928,223015.233999933,203057.326299953,403580.133099924,401284.89739995,398983.247699915,200520.43959999,392874.260199955,NA,NA,NA,NA,NA,333134.192899917,150191.802799935,208856.338499929,401700.820299913,251840.846699895,333015.62099997,332919.538099901,403875.368399895,6986.39929993078,404950.698599918,6986.43239994999,404639.974499936,150190.655799932,260954.338099924,260898.013899918,7995.85559999105,166387.099299929,NA,144475.360499928,17,159367.350899847,28,0,25,1,23,"Germanistik",5,3,3,3,3,3
62.0689655172414,96,5513.61209309885,"l","speed","li1999no","1","b","l","0","1","0",58,3,700,"Thu Mar 16 14:25:22 2023",3,"sehr schwer","speed","Experiment.osexp","Bild_s1_b_16.png",1080,"no",1999,"li","orangene","C:/Users/steff/Documents/Universität/Master Psychologie/SS 2022/Masterarbeit/Experiment/subject-1.csv",0,0,0,"a",-105,-105,"l","l",527.399800019339,527.399800019339,1,223015.207799966,406823.006299906,333015.731599997,150192.0428999,260846.042699995,407351.577099995,406513.02459999,13639.2736999551,260961.095699924,NA,6986.25919991173,NA,255850.891699898,406521.344599896,405760.972399963,401700.94219991,251840.989199933,333142.066699918,208869.65249991,8014.89529991522,49158.0715999007,68975.0144999707,84482.062999974,111983.525299933,132299.728899961,333142.245199997,407351.667999988,352439.218199928,223015.233999933,203057.326299953,403580.133099924,401284.89739995,398983.247699915,200520.43959999,405459.874199936,NA,NA,NA,NA,NA,333134.192899917,150191.802799935,208856.338499929,401700.820299913,251840.846699895,333015.62099997,332919.538099901,405754.973399919,6986.39929993078,406823.105699965,6986.43239994999,406512.918399996,150190.655799932,260954.338099924,260898.013899918,7995.85559999105,166387.099299929,NA,144475.360499928,18,159894.750699867,29,0,25,1,23,"Germanistik",5,3,3,3,3,3
63.3333333333333,96,5345.56483332611,"l","speed","li1999no","1","b","l","0","1","0",59,3,700,"Thu Mar 16 14:25:22 2023",3,"sehr schwer","speed","Experiment.osexp","Bild_s1_b_11.png",1080,"no",1999,"li","orangene","C:/Users/steff/Documents/Universität/Master Psychologie/SS 2022/Masterarbeit/Experiment/subject-1.csv",0,0,0,"a",-100,-100,"l","l",472.194299916737,472.194299916737,1,223015.207799966,408750.185799901,333015.731599997,150192.0428999,260846.042699995,409223.316999967,408439.666499966,13639.2736999551,260961.095699924,NA,6986.25919991173,NA,255850.891699898,408447.886999929,407670.464899973,401700.94219991,251840.989199933,333142.066699918,208869.65249991,8014.89529991522,49158.0715999007,68975.0144999707,84482.062999974,111983.525299933,132299.728899961,333142.245199997,409223.40779996,352439.218199928,223015.233999933,203057.326299953,403580.133099924,401284.89739995,398983.247699915,200520.43959999,407368.746299995,NA,NA,NA,NA,NA,333134.192899917,150191.802799935,208856.338499929,401700.820299913,251840.846699895,333015.62099997,332919.538099901,407664.254499949,6986.39929993078,408750.290099997,6986.43239994999,408439.564300003,150190.655799932,260954.338099924,260898.013899918,7995.85559999105,166387.099299929,NA,144475.360499928,19,160366.944999783,30,0,25,1,23,"Germanistik",5,3,3,3,3,3
61.2903225806452,96,5191.5011806376,"l","speed","li1999no","0","o","a","0","0","0",60,3,700,"Thu Mar 16 14:25:22 2023",3,"sehr schwer","speed","Experiment.osexp","Bild_s1_o_5.png",1080,"no",1999,"li","orangene","C:/Users/steff/Documents/Universität/Master Psychologie/SS 2022/Masterarbeit/Experiment/subject-1.csv",0,1,0,"a",-110,-110,"l","l",569.591599982232,569.591599982232,1,223015.207799966,410780.75949999,333015.731599997,150192.0428999,260846.042699995,411351.326399949,410468.631599913,13639.2736999551,260961.095699924,NA,6986.25919991173,NA,255850.891699898,410478.733700002,409558.26109997,401700.94219991,251840.989199933,333142.066699918,208869.65249991,8014.89529991522,49158.0715999007,68975.0144999707,84482.062999974,111983.525299933,132299.728899961,333142.245199997,411351.45149997,352439.218199928,223015.233999933,203057.326299953,403580.133099924,401284.89739995,398983.247699915,200520.43959999,409256.491899956,NA,NA,NA,NA,NA,333134.192899917,150191.802799935,208856.338499929,401700.820299913,251840.846699895,333015.62099997,332919.538099901,409552.001599921,6986.39929993078,410780.875999946,6986.43239994999,410468.460700009,150190.655799932,260954.338099924,260898.013899918,7995.85559999105,166387.099299929,NA,144475.360499928,19,160936.536599766,31,0,25,1,23,"Germanistik",5,3,3,3,3,3
59.375,96,5051.65731249508,"l","speed","li1999no","0","o","a","0","0","0",61,3,700,"Thu Mar 16 14:25:22 2023",3,"sehr schwer","speed","Experiment.osexp","Bild_s1_o_18.png",1080,"no",1999,"li","orangene","C:/Users/steff/Documents/Universität/Master Psychologie/SS 2022/Masterarbeit/Experiment/subject-1.csv",0,0,1,"a",-120,-120,"l","l",716.49740007706,716.49740007706,1,223015.207799966,412745.848799939,333015.731599997,150192.0428999,260846.042699995,413463.344099931,412435.112999985,13639.2736999551,260961.095699924,NA,6986.25919991173,NA,255850.891699898,412444.522999926,411668.429399957,401700.94219991,251840.989199933,333142.066699918,208869.65249991,8014.89529991522,49158.0715999007,68975.0144999707,84482.062999974,111983.525299933,132299.728899961,333142.245199997,413463.47009996,352439.218199928,223015.233999933,203057.326299953,403580.133099924,401284.89739995,411367.070899927,200520.43959999,409256.491899956,NA,NA,NA,NA,NA,333134.192899917,150191.802799935,208856.338499929,401700.820299913,251840.846699895,333015.62099997,332919.538099901,411662.439899985,6986.39929993078,412745.999899926,6986.43239994999,412434.988999972,150190.655799932,260954.338099924,260898.013899918,7995.85559999105,166387.099299929,NA,144475.360499928,19,161653.033999843,32,0,25,1,23,"Germanistik",5,3,3,3,3,3
57.5757575757576,96,4911.23436363132,"l","speed","li1999no","0","o","a","0","0","0",62,3,700,"Thu Mar 16 14:25:22 2023",3,"sehr schwer","speed","Experiment.osexp","Bild_s1_o_16.png",1080,"no",1999,"li","orangene","C:/Users/steff/Documents/Universität/Master Psychologie/SS 2022/Masterarbeit/Experiment/subject-1.csv",0,1,0,"a",-130,-130,"l","l",417.699999990873,417.699999990873,1,223015.207799966,414868.679099949,333015.731599997,150192.0428999,260846.042699995,415287.469699979,414557.972699986,13639.2736999551,260961.095699924,NA,6986.25919991173,NA,255850.891699898,414566.501099966,413794.12649991,401700.94219991,251840.989199933,333142.066699918,208869.65249991,8014.89529991522,49158.0715999007,68975.0144999707,84482.062999974,111983.525299933,132299.728899961,333142.245199997,415287.599899922,352439.218199928,223015.233999933,203057.326299953,403580.133099924,413492.331999936,411367.070899927,200520.43959999,409256.491899956,NA,NA,NA,NA,NA,333134.192899917,150191.802799935,208856.338499929,401700.820299913,251840.846699895,333015.62099997,332919.538099901,413787.996899919,6986.39929993078,414868.792900001,6986.43239994999,414557.871099911,150190.655799932,260954.338099924,260898.013899918,7995.85559999105,166387.099299929,NA,144475.360499928,19,162070.733999833,33,0,25,1,23,"Germanistik",5,3,3,3,3,3
58.8235294117647,96,4783.82813822998,"l","speed","li1999no","1","o","a","0","1","0",63,3,700,"Thu Mar 16 14:25:22 2023",3,"sehr schwer","speed","Experiment.osexp","Bild_s1_o_10.png",1080,"no",1999,"li","orangene","C:/Users/steff/Documents/Universität/Master Psychologie/SS 2022/Masterarbeit/Experiment/subject-1.csv",0,0,0,"a",-125,-125,"a","a",579.422699986026,579.422699986026,1,223015.207799966,416722.985400003,333015.731599997,150192.0428999,260846.042699995,417303.228699951,416413.275299943,13639.2736999551,260961.095699924,NA,6986.25919991173,NA,255850.891699898,416421.599299996,415619.189199992,401700.94219991,251840.989199933,333142.066699918,208869.65249991,8014.89529991522,49158.0715999007,68975.0144999707,84482.062999974,111983.525299933,132299.728899961,333142.245199997,417303.321299958,352439.218199928,223015.233999933,203057.326299953,403580.133099924,413492.331999936,415317.804999999,200520.43959999,409256.491899956,NA,NA,NA,NA,NA,333134.192899917,150191.802799935,208856.338499929,401700.820299913,251840.846699895,333015.62099997,332919.538099901,415613.019599929,6986.39929993078,416723.082999932,6986.43239994999,416413.180399919,150190.655799932,260954.338099924,260898.013899918,7995.85559999105,166387.099299929,NA,144475.360499928,20,162650.156699819,34,0,25,1,23,"Germanistik",5,3,3,3,3,3
60,96,4664.57821142394,"l","speed","li1999no","1","b","l","0","1","0",64,3,700,"Thu Mar 16 14:25:22 2023",2,"eher schwer","speed","Experiment.osexp","Bild_s2_b_2.png",1080,"no",1999,"li","orangene","C:/Users/steff/Documents/Universität/Master Psychologie/SS 2022/Masterarbeit/Experiment/subject-1.csv",0,0,0,"a",-120,-120,"l","l",610.080700018443,610.080700018443,1,223015.207799966,418852.273699944,333015.731599997,150192.0428999,260846.042699995,419463.419699925,418542.802599957,13639.2736999551,260961.095699924,NA,6986.25919991173,NA,255850.891699898,418550.789500005,417638.913000003,417754.912199918,251840.989199933,333142.066699918,208869.65249991,8014.89529991522,49158.0715999007,68975.0144999707,84482.062999974,111983.525299933,132299.728899961,333142.245199997,419463.512599934,352439.218199928,223015.233999933,203057.326299953,403580.133099924,413492.331999936,415317.804999999,200520.43959999,417337.34009997,NA,NA,NA,NA,NA,333134.192899917,150191.802799935,208856.338499929,417754.775299923,251840.846699895,333015.62099997,332919.538099901,417632.722499897,6986.39929993078,418852.431099978,6986.43239994999,418542.701400002,150190.655799932,260954.338099924,260898.013899918,7995.85559999105,166387.099299929,NA,144475.360499928,21,163260.237399838,35,0,25,1,23,"Germanistik",5,3,3,3,3,3
58.3333333333333,96,4556.72293055169,"l","speed","li1999no","0","o","a","0","0","0",65,3,700,"Thu Mar 16 14:25:22 2023",2,"eher schwer","speed","Experiment.osexp","Bild_s2_o_9.png",1080,"no",1999,"li","orangene","C:/Users/steff/Documents/Universität/Master Psychologie/SS 2022/Masterarbeit/Experiment/subject-1.csv",0,0,1,"a",-130,-130,"l","l",781.788100022823,781.788100022823,1,223015.207799966,421016.589400009,333015.731599997,150192.0428999,260846.042699995,421799.378799973,420706.097199931,13639.2736999551,260961.095699924,NA,6986.25919991173,NA,255850.891699898,420714.821400004,419798.521999968,417754.912199918,251840.989199933,333142.066699918,208869.65249991,8014.89529991522,49158.0715999007,68975.0144999707,84482.062999974,111983.525299933,132299.728899961,333142.245199997,421799.504399998,352439.218199928,223015.233999933,203057.326299953,403580.133099924,413492.331999936,415317.804999999,200520.43959999,419493.522799923,NA,NA,NA,NA,NA,333134.192899917,150191.802799935,208856.338499929,417754.775299923,251840.846699895,333015.62099997,332919.538099901,419789.012799971,6986.39929993078,421016.730899923,6986.43239994999,420705.986999907,150190.655799932,260954.338099924,260898.013899918,7995.85559999105,166387.099299929,NA,144475.360499928,21,164042.025499861,36,0,25,1,23,"Germanistik",5,3,3,3,3,3
56.7567567567568,96,4448.62137296917,"l","speed","li1999no","0","o","a","0","0","0",66,3,700,"Thu Mar 16 14:25:22 2023",2,"eher schwer","speed","Experiment.osexp","Bild_s2_o_25.png",1080,"no",1999,"li","orangene","C:/Users/steff/Documents/Universität/Master Psychologie/SS 2022/Masterarbeit/Experiment/subject-1.csv",0,1,0,"a",-140,-140,"l","l",556.96529999841,556.96529999841,1,223015.207799966,423209.468199988,333015.731599997,150192.0428999,260846.042699995,423767.732799985,422899.089299957,13639.2736999551,260961.095699924,NA,6986.25919991173,NA,255850.891699898,422907.24510001,422117.2813999,417754.912199918,251840.989199933,333142.066699918,208869.65249991,8014.89529991522,49158.0715999007,68975.0144999707,84482.062999974,111983.525299933,132299.728899961,333142.245199997,423767.923199921,352439.218199928,223015.233999933,203057.326299953,403580.133099924,421815.750999958,415317.804999999,200520.43959999,419493.522799923,NA,NA,NA,NA,NA,333134.192899917,150191.802799935,208856.338499929,417754.775299923,251840.846699895,333015.62099997,332919.538099901,422111.019899952,6986.39929993078,423209.614199935,6986.43239994999,422898.989499896,150190.655799932,260954.338099924,260898.013899918,7995.85559999105,166387.099299929,NA,144475.360499928,21,164598.990799859,37,0,25,1,23,"Germanistik",5,3,3,3,3,3
57.8947368421053,96,4347.77135526038,"l","speed","li1999no","1","b","l","0","1","0",67,3,700,"Thu Mar 16 14:25:22 2023",2,"eher schwer","speed","Experiment.osexp","Bild_s2_b_8.png",1080,"no",1999,"li","orangene","C:/Users/steff/Documents/Universität/Master Psychologie/SS 2022/Masterarbeit/Experiment/subject-1.csv",0,0,0,"a",-135,-135,"l","l",616.32070003543,616.32070003543,1,223015.207799966,425214.203899959,333015.731599997,150192.0428999,260846.042699995,425832.586599979,424904.271599953,13639.2736999551,260961.095699924,NA,6986.25919991173,NA,255850.891699898,424912.619699957,424087.965099956,417754.912199918,251840.989199933,333142.066699918,208869.65249991,8014.89529991522,49158.0715999007,68975.0144999707,84482.062999974,111983.525299933,132299.728899961,333142.245199997,425832.81199995,352439.218199928,223015.233999933,203057.326299953,403580.133099924,421815.750999958,423786.85039992,200520.43959999,419493.522799923,NA,NA,NA,NA,NA,333134.192899917,150191.802799935,208856.338499929,417754.775299923,251840.846699895,333015.62099997,332919.538099901,424081.758299959,6986.39929993078,425214.321499923,6986.43239994999,424904.176299926,150190.655799932,260954.338099924,260898.013899918,7995.85559999105,166387.099299929,NA,144475.360499928,22,165215.311499895,38,0,25,1,23,"Germanistik",5,3,3,3,3,3
58.974358974359,96,4250.41802051083,"l","speed","li1999no","1","b","l","0","1","0",68,3,700,"Thu Mar 16 14:25:22 2023",2,"eher schwer","speed","Experiment.osexp","Bild_s2_b_14.png",1080,"no",1999,"li","orangene","C:/Users/steff/Documents/Universität/Master Psychologie/SS 2022/Masterarbeit/Experiment/subject-1.csv",0,0,0,"a",-130,-130,"l","l",550.991300027817,550.991300027817,1,223015.207799966,427231.419599964,333015.731599997,150192.0428999,260846.042699995,427783.394799917,426921.596599976,13639.2736999551,260961.095699924,NA,6986.25919991173,NA,255850.891699898,426929.984899936,426157.104699989,417754.912199918,251840.989199933,333142.066699918,208869.65249991,8014.89529991522,49158.0715999007,68975.0144999707,84482.062999974,111983.525299933,132299.728899961,333142.245199997,427783.490999951,352439.218199928,223015.233999933,203057.326299953,403580.133099924,421815.750999958,423786.85039992,200520.43959999,425855.771999923,NA,NA,NA,NA,NA,333134.192899917,150191.802799935,208856.338499929,417754.775299923,251840.846699895,333015.62099997,332919.538099901,426151.0692999,6986.39929993078,427231.519099907,6986.43239994999,426921.4948999,150190.655799932,260954.338099924,260898.013899918,7995.85559999105,166387.099299929,NA,144475.360499928,23,165766.302799922,39,0,25,1,23,"Germanistik",5,3,3,3,3,3
57.5,96,4155.85240249929,"l","speed","li1999no","0","o","a","0","0","0",69,3,700,"Thu Mar 16 14:25:22 2023",2,"eher schwer","speed","Experiment.osexp","Bild_s2_o_16.png",1080,"no",1999,"li","orangene","C:/Users/steff/Documents/Universität/Master Psychologie/SS 2022/Masterarbeit/Experiment/subject-1.csv",0,1,0,"a",-140,-140,"l","l",467.793300049379,467.793300049379,1,223015.207799966,429234.619499999,333015.731599997,150192.0428999,260846.042699995,429703.632299905,428925.057499902,13639.2736999551,260961.095699924,NA,6986.25919991173,NA,255850.891699898,428933.060399955,428101.510899956,417754.912199918,251840.989199933,333142.066699918,208869.65249991,8014.89529991522,49158.0715999007,68975.0144999707,84482.062999974,111983.525299933,132299.728899961,333142.245199997,429703.784399899,352439.218199928,223015.233999933,203057.326299953,403580.133099924,421815.750999958,423786.85039992,200520.43959999,427799.975899979,NA,NA,NA,NA,NA,333134.192899917,150191.802799935,208856.338499929,417754.775299923,251840.846699895,333015.62099997,332919.538099901,428095.22249992,6986.39929993078,429234.717199928,6986.43239994999,428924.955499941,150190.655799932,260954.338099924,260898.013899918,7995.85559999105,166387.099299929,NA,144475.360499928,23,166234.096099972,40,0,25,1,23,"Germanistik",5,3,3,3,3,3
58.5365853658537,96,4070.98779756087,"l","speed","li1999no","1","o","a","0","1","0",70,3,700,"Thu Mar 16 14:25:22 2023",2,"eher schwer","speed","Experiment.osexp","Bild_s2_o_13.png",1080,"no",1999,"li","orangene","C:/Users/steff/Documents/Universität/Master Psychologie/SS 2022/Masterarbeit/Experiment/subject-1.csv",0,0,0,"a",-135,-135,"a","a",676.403600024059,676.403600024059,1,223015.207799966,431138.000999927,333015.731599997,150192.0428999,260846.042699995,431815.450199996,430825.942499912,13639.2736999551,260961.095699924,NA,6986.25919991173,NA,255850.891699898,430836.052199942,430036.173400003,417754.912199918,251840.989199933,333142.066699918,208869.65249991,8014.89529991522,49158.0715999007,68975.0144999707,84482.062999974,111983.525299933,132299.728899961,333142.245199997,431815.544299898,352439.218199928,223015.233999933,203057.326299953,403580.133099924,421815.750999958,429734.717199928,200520.43959999,427799.975899979,NA,NA,NA,NA,NA,333134.192899917,150191.802799935,208856.338499929,417754.775299923,251840.846699895,333015.62099997,332919.538099901,430030.006099958,6986.39929993078,431138.106399914,6986.43239994999,430825.806399924,150190.655799932,260954.338099924,260898.013899918,7995.85559999105,166387.099299929,NA,144475.360499928,24,166910.499699996,41,0,25,1,23,"Germanistik",5,3,3,3,3,3
59.5238095238095,96,3991.91307857178,"l","speed","li1999no","1","o","a","0","0","1",71,3,700,"Thu Mar 16 14:25:22 2023",2,"eher schwer","speed","Experiment.osexp","Bild_s2_o_11.png",1080,"no",1999,"li","orangene","C:/Users/steff/Documents/Universität/Master Psychologie/SS 2022/Masterarbeit/Experiment/subject-1.csv",0,0,0,"a",-145,-145,"a","a",749.849600018933,749.849600018933,1,223015.207799966,433256.479299976,333015.731599997,150192.0428999,260846.042699995,434007.309799897,432942.323499941,13639.2736999551,260961.095699924,NA,6986.25919991173,NA,255850.891699898,432950.723799993,432133.773699985,417754.912199918,251840.989199933,333142.066699918,208869.65249991,8014.89529991522,49158.0715999007,68975.0144999707,84482.062999974,111983.525299933,132299.728899961,333142.245199997,434007.427799981,352439.218199928,223015.233999933,203057.326299953,403580.133099924,421815.750999958,429734.717199928,200520.43959999,431832.942899899,NA,NA,NA,NA,NA,333134.192899917,150191.802799935,208856.338499929,417754.775299923,251840.846699895,333015.62099997,332919.538099901,432127.423499944,6986.39929993078,433256.662899978,6986.43239994999,432942.211399903,150190.655799932,260954.338099924,260898.013899918,7995.85559999105,166387.099299929,NA,144475.360499928,25,167660.349300015,42,0,25,1,23,"Germanistik",5,3,3,3,3,3
58.1395348837209,96,3911.76959069792,"l","speed","li1999no","0","o","a","0","0","0",72,3,700,"Thu Mar 16 14:25:22 2023",3,"sehr schwer","speed","Experiment.osexp","Bild_s1_o_17.png",1080,"no",1999,"li","orangene","C:/Users/steff/Documents/Universität/Master Psychologie/SS 2022/Masterarbeit/Experiment/subject-1.csv",0,1,0,"a",-155,-155,"l","l",545.743099995889,545.743099995889,1,223015.207799966,435460.606299923,333015.731599997,150192.0428999,260846.042699995,436007.553999894,435150.735999923,13639.2736999551,260961.095699924,NA,6986.25919991173,NA,255850.891699898,435159.07579998,434319.746900001,434434.864699957,251840.989199933,333142.066699918,208869.65249991,8014.89529991522,49158.0715999007,68975.0144999707,84482.062999974,111983.525299933,132299.728899961,333142.245199997,436007.671099971,352439.218199928,223015.233999933,203057.326299953,434018.391699996,421815.750999958,429734.717199928,200520.43959999,431832.942899899,NA,NA,NA,NA,NA,333134.192899917,150191.802799935,208856.338499929,434434.729099972,251840.846699895,333015.62099997,332919.538099901,434313.67850001,6986.39929993078,435460.764699965,6986.43239994999,435150.629999931,150190.655799932,260954.338099924,260898.013899918,7995.85559999105,166387.099299929,NA,144475.360499928,25,168206.092400011,43,0,25,1,23,"Germanistik",5,3,3,3,3,3
59.0909090909091,96,3834.05954318269,"l","speed","li1999no","1","b","l","0","1","0",73,3,700,"Thu Mar 16 14:25:22 2023",3,"sehr schwer","speed","Experiment.osexp","Bild_s1_b_1.png",1080,"no",1999,"li","orangene","C:/Users/steff/Documents/Universität/Master Psychologie/SS 2022/Masterarbeit/Experiment/subject-1.csv",0,0,0,"a",-150,-150,"l","l",492.527500027791,492.527500027791,1,223015.207799966,437417.824100005,333015.731599997,150192.0428999,260846.042699995,437911.485299934,437107.122199959,13639.2736999551,260961.095699924,NA,6986.25919991173,NA,255850.891699898,437115.188599913,436326.480299933,434434.864699957,251840.989199933,333142.066699918,208869.65249991,8014.89529991522,49158.0715999007,68975.0144999707,84482.062999974,111983.525299933,132299.728899961,333142.245199997,437911.577399937,352439.218199928,223015.233999933,203057.326299953,434018.391699996,421815.750999958,436024.818399921,200520.43959999,431832.942899899,NA,NA,NA,NA,NA,333134.192899917,150191.802799935,208856.338499929,434434.729099972,251840.846699895,333015.62099997,332919.538099901,436320.372799993,6986.39929993078,437417.978299898,6986.43239994999,437107.024799916,150190.655799932,260954.338099924,260898.013899918,7995.85559999105,166387.099299929,NA,144475.360499928,26,168698.619900038,44,0,25,1,23,"Germanistik",5,3,3,3,3,3
57.7777777777778,96,3762.97790000163,"l","speed","li1999no","0","o","a","0","0","0",74,3,700,"Thu Mar 16 14:25:22 2023",3,"sehr schwer","speed","Experiment.osexp","Bild_s1_o_15.png",1080,"no",1999,"li","orangene","C:/Users/steff/Documents/Universität/Master Psychologie/SS 2022/Masterarbeit/Experiment/subject-1.csv",0,1,0,"a",-160,-160,"l","l",635.385600035079,635.385600035079,1,223015.207799966,439322.975899908,333015.731599997,150192.0428999,260846.042699995,439959.923799965,439008.264999953,13639.2736999551,260961.095699924,NA,6986.25919991173,NA,255850.891699898,439016.55099995,438243.791999994,434434.864699957,251840.989199933,333142.066699918,208869.65249991,8014.89529991522,49158.0715999007,68975.0144999707,84482.062999974,111983.525299933,132299.728899961,333142.245199997,439960.103099933,352439.218199928,223015.233999933,203057.326299953,434018.391699996,421815.750999958,436024.818399921,200520.43959999,437942.637,NA,NA,NA,NA,NA,333134.192899917,150191.802799935,208856.338499929,434434.729099972,251840.846699895,333015.62099997,332919.538099901,438237.770200009,6986.39929993078,439323.19549995,6986.43239994999,439008.157699951,150190.655799932,260954.338099924,260898.013899918,7995.85559999105,166387.099299929,NA,144475.360499928,26,169334.005500074,45,0,25,1,23,"Germanistik",5,3,3,3,3,3
58.695652173913,96,3696.04041956557,"l","speed","li1999no","1","b","l","0","1","0",75,3,700,"Thu Mar 16 14:25:22 2023",3,"sehr schwer","speed","Experiment.osexp","Bild_s1_b_7.png",1080,"no",1999,"li","orangene","C:/Users/steff/Documents/Universität/Master Psychologie/SS 2022/Masterarbeit/Experiment/subject-1.csv",0,0,0,"a",-155,-155,"l","l",683.853799942881,683.853799942881,1,223015.207799966,441354.54859992,333015.731599997,150192.0428999,260846.042699995,442039.599199896,441044.827899896,13639.2736999551,260961.095699924,NA,6986.25919991173,NA,255850.891699898,441053.138699965,440282.461399911,434434.864699957,251840.989199933,333142.066699918,208869.65249991,8014.89529991522,49158.0715999007,68975.0144999707,84482.062999974,111983.525299933,132299.728899961,333142.245199997,442039.69939996,352439.218199928,223015.233999933,203057.326299953,434018.391699996,421815.750999958,439981.106599909,200520.43959999,437942.637,NA,NA,NA,NA,NA,333134.192899917,150191.802799935,208856.338499929,434434.729099972,251840.846699895,333015.62099997,332919.538099901,440276.429399964,6986.39929993078,441354.690299951,6986.43239994999,441044.72929996,150190.655799932,260954.338099924,260898.013899918,7995.85559999105,166387.099299929,NA,144475.360499928,27,170017.859300016,46,0,25,1,23,"Germanistik",5,3,3,3,3,3
59.5744680851064,96,3632.64175744707,"l","speed","li1999no","1","o","a","0","0","1",76,3,700,"Thu Mar 16 14:25:22 2023",3,"sehr schwer","speed","Experiment.osexp","Bild_s1_o_13.png",1080,"no",1999,"li","orangene","C:/Users/steff/Documents/Universität/Master Psychologie/SS 2022/Masterarbeit/Experiment/subject-1.csv",0,0,0,"a",-165,-165,"a","a",716.303299996071,716.303299996071,1,223015.207799966,443498.107399908,333015.731599997,150192.0428999,260846.042699995,444215.392299928,443188.104699948,13639.2736999551,260961.095699924,NA,6986.25919991173,NA,255850.891699898,443196.263499907,442366.767599946,434434.864699957,251840.989199933,333142.066699918,208869.65249991,8014.89529991522,49158.0715999007,68975.0144999707,84482.062999974,111983.525299933,132299.728899961,333142.245199997,444215.509700007,352439.218199928,223015.233999933,203057.326299953,434018.391699996,421815.750999958,439981.106599909,200520.43959999,442065.145800007,NA,NA,NA,NA,NA,333134.192899917,150191.802799935,208856.338499929,434434.729099972,251840.846699895,333015.62099997,332919.538099901,442360.789299943,6986.39929993078,443498.2133999,6986.43239994999,443187.943800003,150190.655799932,260954.338099924,260898.013899918,7995.85559999105,166387.099299929,NA,144475.360499928,28,170734.162600012,47,0,25,1,23,"Germanistik",5,3,3,3,3,3
58.3333333333333,96,3573.95475000036,"l","speed","li1999no","0","b","l","0","0","0",77,3,700,"Thu Mar 16 14:25:22 2023",3,"sehr schwer","speed","Experiment.osexp","Bild_s1_b_17.png",1080,"no",1999,"li","orangene","C:/Users/steff/Documents/Universität/Master Psychologie/SS 2022/Masterarbeit/Experiment/subject-1.csv",0,0,1,"a",-175,-175,"a","a",815.665400004946,815.665400004946,1,223015.207799966,445606.636399985,333015.731599997,150192.0428999,260846.042699995,446423.529999913,445296.53079994,13639.2736999551,260961.095699924,NA,6986.25919991173,NA,255850.891699898,445305.046999943,444532.175699947,434434.864699957,251840.989199933,333142.066699918,208869.65249991,8014.89529991522,49158.0715999007,68975.0144999707,84482.062999974,111983.525299933,132299.728899961,333142.245199997,446423.6638,352439.218199928,223015.233999933,203057.326299953,444230.755199911,421815.750999958,439981.106599909,200520.43959999,442065.145800007,NA,NA,NA,NA,NA,333134.192899917,150191.802799935,208856.338499929,434434.729099972,251840.846699895,333015.62099997,332919.538099901,444525.967899943,6986.39929993078,445606.866799993,6986.43239994999,445296.432000003,150190.655799932,260954.338099924,260898.013899918,7995.85559999105,166387.099299929,NA,144475.360499928,28,171549.828000017,48,0,25,1,23,"Germanistik",5,3,3,3,3,3
59.1836734693878,96,3512.26833265284,"l","speed","li1999no","1","b","l","0","1","0",78,3,700,"Thu Mar 16 14:25:22 2023",3,"sehr schwer","speed","Experiment.osexp","Bild_s1_b_20.png",1080,"no",1999,"li","orangene","C:/Users/steff/Documents/Universität/Master Psychologie/SS 2022/Masterarbeit/Experiment/subject-1.csv",0,0,0,"a",-170,-170,"l","l",551.320299971849,551.320299971849,1,223015.207799966,447855.107099982,333015.731599997,150192.0428999,260846.042699995,448407.501399983,447545.158899971,13639.2736999551,260961.095699924,NA,6986.25919991173,NA,255850.891699898,447553.382799961,446772.783099907,434434.864699957,251840.989199933,333142.066699918,208869.65249991,8014.89529991522,49158.0715999007,68975.0144999707,84482.062999974,111983.525299933,132299.728899961,333142.245199997,448407.592499978,352439.218199928,223015.233999933,203057.326299953,444230.755199911,446471.776699997,439981.106599909,200520.43959999,442065.145800007,NA,NA,NA,NA,NA,333134.192899917,150191.802799935,208856.338499929,434434.729099972,251840.846699895,333015.62099997,332919.538099901,446766.870099935,6986.39929993078,447855.214399984,6986.43239994999,447545.056500006,150190.655799932,260954.338099924,260898.013899918,7995.85559999105,166387.099299929,NA,144475.360499928,29,172101.148299989,49,0,25,1,23,"Germanistik",5,3,3,3,3,3
