"accuracy","anzahl_gruppen","avg_rt","blauetaste","block","code","correct","correct_colour","correct_response","correct1","correct2","correct3","count_bildstimulus_3_1","count_block","cutoff","datetime","difficulty","difficulty_f","erstebedingung","experiment_file","filename","height","id_geburtsort","id_jahr","id_vater","linketaste","logfile","loose1","loose2","loose3","orangenetaste","punkte1","punkteimblock","response","response_tasteresponse_3_1","response_time","response_time_tasteresponse_3_1","subject_nr","time_bildershuffle","time_bildstimulus_3_1","time_block","time_block_tut","time_blockwerte_zuruecksetzten","time_cutoff_werte_und_punkte_3_1","time_definecorrectcolour_3_1","time_eingabemaske_kuerzel_python","time_ende_tutorial_1","time_ende_experimentierungsphase","time_experiment","time_feedback_serie","time_feedback_tutorial","time_fixationcross_3_1","time_grauesbild_3_1","time_gruppe_block","time_gruppe_tutorial","time_instruktionen_block","time_instruktionen_tutorial_1","time_introduction_1","time_introduction_2_1","time_introduction_3_punkte","time_introduction_3_speed","time_introduction_4_accuracy","time_introduction_5_feedback","time_leertaste_fuer_naechsten_bildschirm","time_logger_3_1","time_loop_block","time_loop_block_tut","time_minifeedbacknegativ_acc","time_minifeedbacknegativ_speed_slow","time_minifeedbacknegativ_speed_slowandwrong","time_minifeedbacknegativ_speed_wrong","time_minifeedbackpositiv_acc","time_minifeedbackpositiv_speed","time_new_inline_script","time_pause_zwischen_serie_1","time_pause_zwischen_serie_2","time_reset_feedback","time_reset_feedback_1","time_sequenz_block","time_sequenz_block_tut","time_sequenz_block_tut_1","time_sequenz_gruppe","time_sequenz_gruppe_tut","time_sequenz_serie","time_serie","time_set_to_zero","time_start","time_tasteresponse_3_1","time_testloopprepareglitchtutorial","time_trial_3_1","time_tutorial","time_tutorial_ende","time_tutorial_wiederholungscheck","time_vorgeplaenkel","time_warnhinweis_3sek","time_warnhinweis_5sek","time_warnung_tutorial_1","total_correct","total_response_time","total_responses","tutorial","tutorialpunkte","geschlecht","alter","studiengang","bildungsabschluss","haendig1","haendig2","haendig3","haendig4","haendig_mean"
88.8888888888889,96,85346.8498333047,"l","accuracy","ka1996he","0","o","a","0","0","0",0,1,700,"Wed Apr 12 14:03:07 2023",3,"sehr schwer","accuracy","Experiment.osexp","Bild_s1_o_23.png",1080,"he",1996,"ka","orangene","C:/Users/steff/Documents/Universität/Master Psychologie/SS 2022/Masterarbeit/Experiment/subject-13.csv",1,0,0,"a",-10,-10,"None","None",4995.01820001751,4995.01820001751,13,NA,215122.046099976,NA,152680.678199977,NA,220117.343000136,214814.064499922,34922.0741000026,NA,NA,12622.2478998825,NA,NA,214821.355999913,NA,NA,214282.764700241,NA,152774.442000315,13393.6320999637,56751.876000315,88222.7378999814,106786.371599883,128401.760499924,138302.530700341,152774.547600187,220117.416900117,NA,214281.823100056,NA,NA,NA,NA,NA,NA,NA,NA,NA,NA,NA,NA,152680.495900102,152767.344400287,NA,214282.723400276,NA,NA,NA,12622.3464999348,215122.128800023,12622.367599979,214813.857899979,152679.715200327,NA,NA,13377.5387001224,NA,NA,146285.624899901,8,768121.648499742,9,1,0,1,26,"Geographie",6,3,3,3,3,3
80,96,76992.2823199537,"l","accuracy","ka1996he","0","o","a","0","0","0",1,1,700,"Wed Apr 12 14:03:07 2023",3,"sehr schwer","accuracy","Experiment.osexp","Bild_s1_o_4.png",1080,"he",1996,"ka","orangene","C:/Users/steff/Documents/Universität/Master Psychologie/SS 2022/Masterarbeit/Experiment/subject-13.csv",1,0,0,"a",-20,-20,"l","l",1801.1746997945,1801.1746997945,13,NA,222271.811299957,NA,152680.678199977,NA,224073.589399923,221963.934199885,34922.0741000026,NA,NA,12622.2478998825,NA,NA,221970.771899913,221444.014099892,NA,214282.764700241,NA,152774.442000315,13393.6320999637,56751.876000315,88222.7378999814,106786.371599883,128401.760499924,138302.530700341,152774.547600187,224073.655300308,NA,214281.823100056,220142.13170018,NA,NA,NA,NA,NA,NA,NA,NA,NA,NA,NA,152680.495900102,152767.344400287,NA,214282.723400276,NA,NA,221438.503300305,12622.3464999348,222271.916400176,12622.367599979,221963.859000243,152679.715200327,NA,NA,13377.5387001224,220443.122100085,NA,146285.624899901,8,769922.823199537,10,1,0,1,26,"Geographie",6,3,3,3,3,3
81.8181818181818,96,70108.5247544741,"l","accuracy","ka1996he","1","b","l","1","0","0",2,1,700,"Wed Apr 12 14:03:07 2023",2,"eher schwer","accuracy","Experiment.osexp","Bild_s2_b_17.png",1080,"he",1996,"ka","orangene","C:/Users/steff/Documents/Universität/Master Psychologie/SS 2022/Masterarbeit/Experiment/subject-13.csv",0,0,0,"a",-15,-15,"l","l",1270.94909967855,1270.94909967855,13,NA,225298.042600043,NA,152680.678199977,NA,226569.814400282,224987.664999906,34922.0741000026,NA,NA,12622.2478998825,NA,NA,224997.534300201,224419.835000299,NA,224498.672800139,NA,152774.442000315,13393.6320999637,56751.876000315,88222.7378999814,106786.371599883,128401.760499924,138302.530700341,152774.547600187,226569.887999911,NA,214281.823100056,224119.047800079,NA,NA,NA,NA,NA,NA,NA,NA,NA,NA,NA,152680.495900102,152767.344400287,NA,224498.598900158,NA,NA,224414.326699916,12622.3464999348,225298.17150021,12622.367599979,224987.531200051,152679.715200327,NA,NA,13377.5387001224,220443.122100085,NA,146285.624899901,9,771193.772299215,11,1,0,1,26,"Geographie",6,3,3,3,3,3
75,96,64362.3019749066,"l","accuracy","ka1996he","0","b","l","0","0","0",3,1,700,"Wed Apr 12 14:03:07 2023",2,"eher schwer","accuracy","Experiment.osexp","Bild_s2_b_11.png",1080,"he",1996,"ka","orangene","C:/Users/steff/Documents/Universität/Master Psychologie/SS 2022/Masterarbeit/Experiment/subject-13.csv",1,0,0,"a",-25,-25,"a","a",1153.85139966384,1153.85139966384,13,NA,227735.157500021,NA,152680.678199977,NA,228889.643799979,227427.5165,34922.0741000026,NA,NA,12622.2478998825,NA,NA,227434.585799929,226895.040000323,NA,224498.672800139,NA,152774.442000315,13393.6320999637,56751.876000315,88222.7378999814,106786.371599883,128401.760499924,138302.530700341,152774.547600187,228889.713900164,NA,214281.823100056,224119.047800079,NA,NA,NA,226594.178200234,NA,NA,NA,NA,NA,NA,NA,152680.495900102,152767.344400287,NA,224498.598900158,NA,NA,226889.636700042,12622.3464999348,227735.245500226,12622.367599979,227427.438500337,152679.715200327,NA,NA,13377.5387001224,220443.122100085,NA,146285.624899901,9,772347.623698879,12,1,0,1,26,"Geographie",6,3,3,3,3,3
76.9230769230769,96,59472.7680076344,"l","accuracy","ka1996he","1","b","l","1","0","0",4,1,700,"Wed Apr 12 14:03:07 2023",1,"eher leicht","accuracy","Experiment.osexp","Bild_s3_b_9.png",1080,"he",1996,"ka","orangene","C:/Users/steff/Documents/Universität/Master Psychologie/SS 2022/Masterarbeit/Experiment/subject-13.csv",0,0,0,"a",-20,-20,"l","l",798.360400367528,798.360400367528,13,NA,230090.587300248,NA,152680.678199977,NA,230889.702100307,229782.819000073,34922.0741000026,NA,NA,12622.2478998825,NA,NA,229790.031299926,229207.713100128,NA,229280.064200051,NA,152774.442000315,13393.6320999637,56751.876000315,88222.7378999814,106786.371599883,128401.760499924,138302.530700341,152774.547600187,230889.774000272,NA,214281.823100056,228907.162600197,NA,NA,NA,226594.178200234,NA,NA,NA,NA,NA,NA,NA,152680.495900102,152767.344400287,NA,229279.934900347,NA,NA,229202.256400138,12622.3464999348,230090.665699914,12622.367599979,229782.743399963,152679.715200327,NA,NA,13377.5387001224,220443.122100085,NA,146285.624899901,10,773145.984099247,13,1,0,1,26,"Geographie",6,3,3,3,3,3
78.5714285714286,96,55362.8099499536,"l","accuracy","ka1996he","1","b","l","1","0","0",5,1,700,"Wed Apr 12 14:03:07 2023",1,"eher leicht","accuracy","Experiment.osexp","Bild_s3_b_1.png",1080,"he",1996,"ka","orangene","C:/Users/steff/Documents/Universität/Master Psychologie/SS 2022/Masterarbeit/Experiment/subject-13.csv",0,0,0,"a",-15,-15,"l","l",1933.35520010442,1933.35520010442,13,NA,232091.626900248,NA,152680.678199977,NA,234025.616600178,231783.548000269,34922.0741000026,NA,NA,12622.2478998825,NA,NA,231790.567799937,231233.158300165,NA,229280.064200051,NA,152774.442000315,13393.6320999637,56751.876000315,88222.7378999814,106786.371599883,128401.760499924,138302.530700341,152774.547600187,234025.686400011,NA,214281.823100056,228907.162600197,NA,NA,NA,230932.922600303,NA,NA,NA,NA,NA,NA,NA,152680.495900102,152767.344400287,NA,229279.934900347,NA,NA,231227.851700038,12622.3464999348,232091.727599967,12622.367599979,231783.468000125,152679.715200327,NA,NA,13377.5387001224,220443.122100085,NA,146285.624899901,11,775079.339299351,14,1,0,1,26,"Geographie",6,3,3,3,3,3
80,96,51713.3148266313,"l","accuracy","ka1996he","1","o","a","1","0","0",6,1,700,"Wed Apr 12 14:03:07 2023",0,"sehr leicht","accuracy","Experiment.osexp","Bild_s4_o_1.png",1080,"he",1996,"ka","orangene","C:/Users/steff/Documents/Universität/Master Psychologie/SS 2022/Masterarbeit/Experiment/subject-13.csv",0,0,0,"a",-10,-10,"a","a",620.383100118488,620.383100118488,13,NA,235228.639699984,NA,152680.678199977,NA,235849.771200214,234920.848300215,34922.0741000026,NA,NA,12622.2478998825,NA,NA,234927.77119996,234353.801700287,NA,234426.523699891,NA,152774.442000315,13393.6320999637,56751.876000315,88222.7378999814,106786.371599883,128401.760499924,138302.530700341,152774.547600187,235849.846000317,NA,214281.823100056,228907.162600197,NA,NA,NA,234053.44390031,NA,NA,NA,NA,NA,NA,NA,152680.495900102,152767.344400287,NA,234426.449200138,NA,NA,234348.437900189,12622.3464999348,235228.728000075,12622.367599979,234920.714800246,152679.715200327,NA,NA,13377.5387001224,220443.122100085,NA,146285.624899901,12,775699.722399469,15,1,0,1,26,"Geographie",6,3,3,3,3,3
81.25,96,48516.2294374604,"l","accuracy","ka1996he","1","o","a","1","0","0",7,1,700,"Wed Apr 12 14:03:07 2023",0,"sehr leicht","accuracy","Experiment.osexp","Bild_s4_o_3.png",1080,"he",1996,"ka","orangene","C:/Users/steff/Documents/Universität/Master Psychologie/SS 2022/Masterarbeit/Experiment/subject-13.csv",0,0,0,"a",-5,-5,"a","a",559.948599897325,559.948599897325,13,NA,237016.902100295,NA,152680.678199977,NA,237577.643000055,236708.907400258,34922.0741000026,NA,NA,12622.2478998825,NA,NA,236716.157500166,236172.399099916,NA,234426.523699891,NA,152774.442000315,13393.6320999637,56751.876000315,88222.7378999814,106786.371599883,128401.760499924,138302.530700341,152774.547600187,237577.711200342,NA,214281.823100056,228907.162600197,NA,NA,NA,235872.000399977,NA,NA,NA,NA,NA,NA,NA,152680.495900102,152767.344400287,NA,234426.449200138,NA,NA,236167.01890016,12622.3464999348,237017.126400024,12622.367599979,236708.831599914,152679.715200327,NA,NA,13377.5387001224,220443.122100085,NA,146285.624899901,13,776259.670999367,16,1,0,1,26,"Geographie",6,3,3,3,3,3
82.3529411764706,96,45691.2180705489,"l","accuracy","ka1996he","1","b","l","1","0","0",8,1,700,"Wed Apr 12 14:03:07 2023",0,"sehr leicht","accuracy","Experiment.osexp","Bild_s4_b_7.png",1080,"he",1996,"ka","orangene","C:/Users/steff/Documents/Universität/Master Psychologie/SS 2022/Masterarbeit/Experiment/subject-13.csv",0,0,0,"a",0,0,"l","l",491.036199964583,491.036199964583,13,NA,238781.942999922,NA,152680.678199977,NA,239273.770700209,238471.606300212,34922.0741000026,NA,NA,12622.2478998825,NA,NA,238478.750099894,237906.773100141,NA,237976.513000205,NA,152774.442000315,13393.6320999637,56751.876000315,88222.7378999814,106786.371599883,128401.760499924,138302.530700341,152774.547600187,239273.841500282,NA,214281.823100056,228907.162600197,NA,NA,NA,237606.090100016,NA,NA,NA,NA,NA,NA,NA,152680.495900102,152767.344400287,NA,237976.442600135,NA,NA,237901.421600021,12622.3464999348,238782.02150017,12622.367599979,238471.528300084,152679.715200327,NA,NA,13377.5387001224,220443.122100085,NA,146285.624899901,14,776750.707199331,17,1,0,1,26,"Geographie",6,3,3,3,3,3
83.3333333333333,96,43194.3647221973,"l","accuracy","ka1996he","1","b","l","1","0","0",9,1,700,"Wed Apr 12 14:03:07 2023",0,"sehr leicht","accuracy","Experiment.osexp","Bild_s4_b_5.png",1080,"he",1996,"ka","orangene","C:/Users/steff/Documents/Universität/Master Psychologie/SS 2022/Masterarbeit/Experiment/subject-13.csv",0,0,0,"a",5,5,"l","l",747.857800219208,747.857800219208,13,NA,240637.713400181,NA,152680.678199977,NA,241386.89980004,240321.525800042,34922.0741000026,NA,NA,12622.2478998825,NA,NA,240329.779299907,239590.524700005,NA,237976.513000205,NA,152774.442000315,13393.6320999637,56751.876000315,88222.7378999814,106786.371599883,128401.760499924,138302.530700341,152774.547600187,241386.972100008,NA,214281.823100056,228907.162600197,NA,NA,NA,239289.662800264,NA,NA,NA,NA,NA,NA,NA,152680.495900102,152767.344400287,NA,237976.442600135,NA,NA,239585.113800131,12622.3464999348,240637.845600024,12622.367599979,240321.245499887,152679.715200327,NA,NA,13377.5387001224,220443.122100085,NA,146285.624899901,15,777498.564999551,18,1,0,1,26,"Geographie",6,3,3,3,3,3
84.2105263157895,96,40959.528384191,"l","accuracy","ka1996he","1","b","l","1","0","0",10,1,700,"Wed Apr 12 14:03:07 2023",1,"eher leicht","accuracy","Experiment.osexp","Bild_s3_b_14.png",1080,"he",1996,"ka","orangene","C:/Users/steff/Documents/Universität/Master Psychologie/SS 2022/Masterarbeit/Experiment/subject-13.csv",0,0,0,"a",10,10,"l","l",732.474300079048,732.474300079048,13,NA,244364.521699958,NA,152680.678199977,NA,245097.622700036,244056.511899922,34922.0741000026,NA,NA,12622.2478998825,NA,NA,244063.337299973,243474.233500194,NA,243554.566900246,NA,152774.442000315,13393.6320999637,56751.876000315,88222.7378999814,106786.371599883,128401.760499924,138302.530700341,152774.547600187,245097.687900066,NA,214281.823100056,228907.162600197,NA,NA,NA,243173.56300028,NA,NA,NA,NA,NA,NA,NA,152680.495900102,152767.344400287,NA,243554.493200034,NA,NA,243468.77360018,12622.3464999348,244364.601400215,12622.367599979,244056.439900305,152679.715200327,NA,NA,13377.5387001224,220443.122100085,NA,146285.624899901,16,778231.03929963,19,1,0,1,26,"Geographie",6,3,3,3,3,3
80,96,38961.9109199848,"l","accuracy","ka1996he","0","b","l","0","0","0",11,1,700,"Wed Apr 12 14:03:07 2023",1,"eher leicht","accuracy","Experiment.osexp","Bild_s3_b_15.png",1080,"he",1996,"ka","orangene","C:/Users/steff/Documents/Universität/Master Psychologie/SS 2022/Masterarbeit/Experiment/subject-13.csv",1,0,0,"a",0,0,"a","a",1007.17910006642,1007.17910006642,13,NA,246249.774300028,NA,152680.678199977,NA,247257.682099938,245941.614199895,34922.0741000026,NA,NA,12622.2478998825,NA,NA,245948.249599896,245425.195000134,NA,243554.566900246,NA,152774.442000315,13393.6320999637,56751.876000315,88222.7378999814,106786.371599883,128401.760499924,138302.530700341,152774.547600187,247257.749900222,NA,214281.823100056,228907.162600197,NA,NA,NA,245124.603699893,NA,NA,NA,NA,NA,NA,NA,152680.495900102,152767.344400287,NA,243554.493200034,NA,NA,245419.907500036,12622.3464999348,246249.855800066,12622.367599979,245941.510400269,152679.715200327,NA,NA,13377.5387001224,220443.122100085,NA,146285.624899901,16,779238.218399696,20,1,0,1,26,"Geographie",6,3,3,3,3,3
80.9523809523809,96,37136.3683619004,"l","accuracy","ka1996he","1","o","a","1","0","0",12,1,700,"Wed Apr 12 14:03:07 2023",2,"eher schwer","accuracy","Experiment.osexp","Bild_s2_o_5.png",1080,"he",1996,"ka","orangene","C:/Users/steff/Documents/Universität/Master Psychologie/SS 2022/Masterarbeit/Experiment/subject-13.csv",0,0,0,"a",5,5,"a","a",625.517200212926,625.517200212926,13,NA,248439.39490011,NA,152680.678199977,NA,249065.681600012,248131.004900206,34922.0741000026,NA,NA,12622.2478998825,NA,NA,248138.262600172,247573.282599915,NA,247645.13210021,NA,152774.442000315,13393.6320999637,56751.876000315,88222.7378999814,106786.371599883,128401.760499924,138302.530700341,152774.547600187,249065.746500157,NA,214281.823100056,247272.518699989,NA,NA,NA,245124.603699893,NA,NA,NA,NA,NA,NA,NA,152680.495900102,152767.344400287,NA,247645.062400028,NA,NA,247567.837300245,12622.3464999348,248439.568399917,12622.367599979,248130.928700324,152679.715200327,NA,NA,13377.5387001224,220443.122100085,NA,146285.624899901,17,779863.735599909,21,1,0,1,26,"Geographie",6,3,3,3,3,3
81.8181818181818,96,35483.555509095,"l","accuracy","ka1996he","1","b","l","1","0","0",13,1,700,"Wed Apr 12 14:03:07 2023",2,"eher schwer","accuracy","Experiment.osexp","Bild_s2_b_24.png",1080,"he",1996,"ka","orangene","C:/Users/steff/Documents/Universität/Master Psychologie/SS 2022/Masterarbeit/Experiment/subject-13.csv",0,0,0,"a",10,10,"l","l",774.485600180924,774.485600180924,13,NA,250226.430099923,NA,152680.678199977,NA,251001.516500022,249918.825800065,34922.0741000026,NA,NA,12622.2478998825,NA,NA,249925.83570024,249387.442800216,NA,247645.13210021,NA,152774.442000315,13393.6320999637,56751.876000315,88222.7378999814,106786.371599883,128401.760499924,138302.530700341,152774.547600187,251001.584700309,NA,214281.823100056,247272.518699989,NA,NA,NA,249086.902800016,NA,NA,NA,NA,NA,NA,NA,152680.495900102,152767.344400287,NA,247645.062400028,NA,NA,249382.025100291,12622.3464999348,250226.588699967,12622.367599979,249918.751100078,152679.715200327,NA,NA,13377.5387001224,220443.122100085,NA,146285.624899901,18,780638.22120009,22,1,0,1,26,"Geographie",6,3,3,3,3,3
82.6086956521739,96,33969.4206521887,"l","accuracy","ka1996he","1","o","a","1","0","0",14,1,700,"Wed Apr 12 14:03:07 2023",3,"sehr schwer","accuracy","Experiment.osexp","Bild_s1_o_5.png",1080,"he",1996,"ka","orangene","C:/Users/steff/Documents/Universität/Master Psychologie/SS 2022/Masterarbeit/Experiment/subject-13.csv",0,0,0,"a",15,15,"a","a",658.453800249845,658.453800249845,13,NA,252198.532199953,NA,152680.678199977,NA,252857.697300147,251890.942000318,34922.0741000026,NA,NA,12622.2478998825,NA,NA,251897.996400017,251330.550800078,NA,251400.188700296,NA,152774.442000315,13393.6320999637,56751.876000315,88222.7378999814,106786.371599883,128401.760499924,138302.530700341,152774.547600187,252857.767400332,NA,214281.823100056,247272.518699989,NA,NA,NA,251027.538900264,NA,NA,NA,NA,NA,NA,NA,152680.495900102,152767.344400287,NA,251400.121900253,NA,NA,251322.465900332,12622.3464999348,252198.618500028,12622.367599979,251890.864599962,152679.715200327,NA,NA,13377.5387001224,220443.122100085,NA,146285.624899901,19,781296.67500034,23,1,0,1,26,"Geographie",6,3,3,3,3,3
79.1666666666667,96,32579.6381791782,"l","accuracy","ka1996he","0","b","l","0","0","0",15,1,700,"Wed Apr 12 14:03:07 2023",3,"sehr schwer","accuracy","Experiment.osexp","Bild_s1_b_22.png",1080,"he",1996,"ka","orangene","C:/Users/steff/Documents/Universität/Master Psychologie/SS 2022/Masterarbeit/Experiment/subject-13.csv",1,0,0,"a",5,5,"a","a",614.64129993692,614.64129993692,13,NA,254018.24939996,NA,152680.678199977,NA,254633.535900153,253710.071000271,34922.0741000026,NA,NA,12622.2478998825,NA,NA,253717.374700122,253175.201599952,NA,251400.188700296,NA,152774.442000315,13393.6320999637,56751.876000315,88222.7378999814,106786.371599883,128401.760499924,138302.530700341,152774.547600187,254633.606400341,NA,214281.823100056,247272.518699989,NA,NA,NA,252874.781200197,NA,NA,NA,NA,NA,NA,NA,152680.495900102,152767.344400287,NA,251400.121900253,NA,NA,253169.808499981,12622.3464999348,254018.426900264,12622.367599979,253709.99140013,152679.715200327,NA,NA,13377.5387001224,220443.122100085,NA,146285.624899901,19,781911.316300277,24,1,0,1,26,"Geographie",6,3,3,3,3,3
50,96,9830.28849982656,"l","speed","ka1996he","0","b","l","0","0","0",16,2,700,"Wed Apr 12 14:03:07 2023",3,"sehr schwer","accuracy","Experiment.osexp","Bild_s1_b_18.png",1080,"he",1996,"ka","orangene","C:/Users/steff/Documents/Universität/Master Psychologie/SS 2022/Masterarbeit/Experiment/subject-13.csv",0,1,0,"a",-5,-10,"a","a",507.757099810988,507.757099810988,13,NA,280205.207299907,NA,152680.678199977,260091.576300096,280713.488700334,279897.036000155,34922.0741000026,NA,NA,12622.2478998825,NA,255096.249300055,279904.482299928,254954.055000097,NA,279370.678700041,NA,260216.109400149,13393.6320999637,56751.876000315,88222.7378999814,106786.371599883,128401.760499924,138302.530700341,260216.236100066,280713.584899902,NA,279369.69400011,254652.905399911,NA,NA,NA,252874.781200197,NA,NA,NA,NA,NA,NA,NA,152680.495900102,260209.139000159,NA,279370.636700187,NA,NA,254948.697300162,12622.3464999348,280205.287900288,12622.367599979,279896.83480002,152679.715200327,NA,NA,13377.5387001224,220443.122100085,NA,146285.624899901,1,19660.5769996531,2,1,5,1,26,"Geographie",6,3,3,3,3,3
66.6666666666667,96,6777.77666645125,"l","speed","ka1996he","1","o","a","0","1","0",17,2,700,"Wed Apr 12 14:03:07 2023",3,"sehr schwer","accuracy","Experiment.osexp","Bild_s1_o_11.png",1080,"he",1996,"ka","orangene","C:/Users/steff/Documents/Universität/Master Psychologie/SS 2022/Masterarbeit/Experiment/subject-13.csv",0,0,0,"a",0,-5,"a","a",672.752999700606,672.752999700606,13,NA,281880.216400139,NA,152680.678199977,260091.576300096,282553.594500292,281572.305300273,34922.0741000026,NA,NA,12622.2478998825,NA,255096.249300055,281579.164899886,281028.175000101,NA,279370.678700041,NA,260216.109400149,13393.6320999637,56751.876000315,88222.7378999814,106786.371599883,128401.760499924,138302.530700341,260216.236100066,282553.670499939,NA,279369.69400011,254652.905399911,NA,NA,280727.860600222,252874.781200197,NA,NA,NA,NA,NA,NA,NA,152680.495900102,260209.139000159,NA,279370.636700187,NA,NA,281022.776300088,12622.3464999348,281880.298700184,12622.367599979,281572.22880004,152679.715200327,NA,NA,13377.5387001224,220443.122100085,NA,146285.624899901,2,20333.3299993537,3,1,5,1,26,"Geographie",6,3,3,3,3,3
75,96,5229.09349983092,"l","speed","ka1996he","1","o","a","0","1","0",18,2,700,"Wed Apr 12 14:03:07 2023",2,"eher schwer","accuracy","Experiment.osexp","Bild_s2_o_25.png",1080,"he",1996,"ka","orangene","C:/Users/steff/Documents/Universität/Master Psychologie/SS 2022/Masterarbeit/Experiment/subject-13.csv",0,0,0,"a",5,0,"a","a",583.043999969959,583.043999969959,13,NA,283761.909699999,NA,152680.678199977,260091.576300096,284345.792800188,283453.772600275,34922.0741000026,NA,NA,12622.2478998825,NA,255096.249300055,283460.994299967,282882.225600071,NA,282953.652500175,NA,260216.109400149,13393.6320999637,56751.876000315,88222.7378999814,106786.371599883,128401.760499924,138302.530700341,260216.236100066,284345.866800286,NA,279369.69400011,254652.905399911,NA,NA,280727.860600222,252874.781200197,282581.590400077,NA,NA,NA,NA,NA,NA,152680.495900102,260209.139000159,NA,282953.589600045,NA,NA,282876.931500155,12622.3464999348,283761.994400062,12622.367599979,283453.691300005,152679.715200327,NA,NA,13377.5387001224,220443.122100085,NA,146285.624899901,3,20916.3739993237,4,1,5,1,26,"Geographie",6,3,3,3,3,3
80,96,4297.83949982375,"l","speed","ka1996he","1","o","a","0","1","0",19,2,700,"Wed Apr 12 14:03:07 2023",2,"eher schwer","accuracy","Experiment.osexp","Bild_s2_o_3.png",1080,"he",1996,"ka","orangene","C:/Users/steff/Documents/Universität/Master Psychologie/SS 2022/Masterarbeit/Experiment/subject-13.csv",0,0,0,"a",10,5,"a","a",572.823499795049,572.823499795049,13,NA,285516.025600024,NA,152680.678199977,260091.576300096,286089.59500026,285207.991899922,34922.0741000026,NA,NA,12622.2478998825,NA,255096.249300055,285215.354199987,284663.335800171,NA,282953.652500175,NA,260216.109400149,13393.6320999637,56751.876000315,88222.7378999814,106786.371599883,128401.760499924,138302.530700341,260216.236100066,286089.670900255,NA,279369.69400011,254652.905399911,NA,NA,280727.860600222,252874.781200197,284360.455899965,NA,NA,NA,NA,NA,NA,152680.495900102,260209.139000159,NA,282953.589600045,NA,NA,284655.998300295,12622.3464999348,285516.224500258,12622.367599979,285207.843500189,152679.715200327,NA,NA,13377.5387001224,220443.122100085,NA,146285.624899901,4,21489.1974991187,5,1,5,1,26,"Geographie",6,3,3,3,3,3
83.3333333333333,96,3688.8618831678,"l","speed","ka1996he","1","o","a","0","1","0",20,2,700,"Wed Apr 12 14:03:07 2023",1,"eher leicht","accuracy","Experiment.osexp","Bild_s3_o_3.png",1080,"he",1996,"ka","orangene","C:/Users/steff/Documents/Universität/Master Psychologie/SS 2022/Masterarbeit/Experiment/subject-13.csv",0,0,0,"a",15,10,"a","a",643.973799888045,643.973799888045,13,NA,287284.992500208,NA,152680.678199977,260091.576300096,287929.510900285,286976.126600057,34922.0741000026,NA,NA,12622.2478998825,NA,255096.249300055,286983.385399915,286406.400400214,NA,286478.56760025,NA,260216.109400149,13393.6320999637,56751.876000315,88222.7378999814,106786.371599883,128401.760499924,138302.530700341,260216.236100066,287929.585699923,NA,279369.69400011,254652.905399911,NA,NA,280727.860600222,252874.781200197,286106.304800138,NA,NA,NA,NA,NA,NA,152680.495900102,260209.139000159,NA,286478.495799936,NA,NA,286401.01339994,12622.3464999348,287285.073800012,12622.367599979,286976.049799938,152679.715200327,NA,NA,13377.5387001224,220443.122100085,NA,146285.624899901,5,22133.1712990068,6,1,5,1,26,"Geographie",6,3,3,3,3,3
85.7142857142857,96,3221.74317130287,"l","speed","ka1996he","1","o","a","0","1","0",21,2,700,"Wed Apr 12 14:03:07 2023",1,"eher leicht","accuracy","Experiment.osexp","Bild_s3_o_17.png",1080,"he",1996,"ka","orangene","C:/Users/steff/Documents/Universität/Master Psychologie/SS 2022/Masterarbeit/Experiment/subject-13.csv",0,0,0,"a",20,15,"a","a",419.030900113285,419.030900113285,13,NA,289109.912800137,NA,152680.678199977,260091.576300096,289529.564900324,288802.235099953,34922.0741000026,NA,NA,12622.2478998825,NA,255096.249300055,288809.272900224,288259.430000093,NA,286478.56760025,NA,260216.109400149,13393.6320999637,56751.876000315,88222.7378999814,106786.371599883,128401.760499924,138302.530700341,260216.236100066,289529.642000329,NA,279369.69400011,254652.905399911,NA,NA,280727.860600222,252874.781200197,287958.381200209,NA,NA,NA,NA,NA,NA,152680.495900102,260209.139000159,NA,286478.495799936,NA,NA,288254.121799953,12622.3464999348,289109.990600031,12622.367599979,288802.155300044,152679.715200327,NA,NA,13377.5387001224,220443.122100085,NA,146285.624899901,6,22552.2021991201,7,1,5,1,26,"Geographie",6,3,3,3,3,3
87.5,96,2874.57517487928,"l","speed","ka1996he","1","o","a","0","1","0",22,2,700,"Wed Apr 12 14:03:07 2023",0,"sehr leicht","accuracy","Experiment.osexp","Bild_s4_o_19.png",1080,"he",1996,"ka","orangene","C:/Users/steff/Documents/Universität/Master Psychologie/SS 2022/Masterarbeit/Experiment/subject-13.csv",0,0,0,"a",25,20,"a","a",444.399199914187,444.399199914187,13,NA,290732.471300289,NA,152680.678199977,260091.576300096,291177.733399905,290421.750500333,34922.0741000026,NA,NA,12622.2478998825,NA,255096.249300055,290429.067000281,289842.732199933,NA,289920.21859996,NA,260216.109400149,13393.6320999637,56751.876000315,88222.7378999814,106786.371599883,128401.760499924,138302.530700341,260216.236100066,291177.816400304,NA,279369.69400011,254652.905399911,NA,NA,280727.860600222,252874.781200197,289542.165399995,NA,NA,NA,NA,NA,NA,152680.495900102,260209.139000159,NA,289920.147600118,NA,NA,289837.269200012,12622.3464999348,290732.647500001,12622.367599979,290421.66410014,152679.715200327,NA,NA,13377.5387001224,220443.122100085,NA,146285.624899901,7,22996.6013990343,8,1,5,1,26,"Geographie",6,3,3,3,3,3
88.8888888888889,96,2613.84381100328,"l","speed","ka1996he","1","b","l","0","1","0",23,2,700,"Wed Apr 12 14:03:07 2023",0,"sehr leicht","accuracy","Experiment.osexp","Bild_s4_b_10.png",1080,"he",1996,"ka","orangene","C:/Users/steff/Documents/Universität/Master Psychologie/SS 2022/Masterarbeit/Experiment/subject-13.csv",0,0,0,"a",30,25,"l","l",527.992899995297,527.992899995297,13,NA,292344.961000141,NA,152680.678199977,260091.576300096,292873.747400008,292036.916700192,34922.0741000026,NA,NA,12622.2478998825,NA,255096.249300055,292044.139300007,291493.810799904,NA,289920.21859996,NA,260216.109400149,13393.6320999637,56751.876000315,88222.7378999814,106786.371599883,128401.760499924,138302.530700341,260216.236100066,292873.821299989,NA,279369.69400011,254652.905399911,NA,NA,280727.860600222,252874.781200197,291193.09050031,NA,NA,NA,NA,NA,NA,152680.495900102,260209.139000159,NA,289920.147600118,NA,NA,291488.519799896,12622.3464999348,292345.044200309,12622.367599979,292036.839700304,152679.715200327,NA,NA,13377.5387001224,220443.122100085,NA,146285.624899901,8,23524.5942990296,9,1,5,1,26,"Geographie",6,3,3,3,3,3
80,96,2402.90365987457,"l","speed","ka1996he","0","b","l","0","0","0",24,2,700,"Wed Apr 12 14:03:07 2023",0,"sehr leicht","accuracy","Experiment.osexp","Bild_s4_b_15.png",1080,"he",1996,"ka","orangene","C:/Users/steff/Documents/Universität/Master Psychologie/SS 2022/Masterarbeit/Experiment/subject-13.csv",0,1,0,"a",20,15,"a","a",504.442299716175,504.442299716175,13,NA,294080.396899953,NA,152680.678199977,260091.576300096,294585.608900059,293772.577800322,34922.0741000026,NA,NA,12622.2478998825,NA,255096.249300055,293779.883699957,293201.356099918,NA,293275.38840007,NA,260216.109400149,13393.6320999637,56751.876000315,88222.7378999814,106786.371599883,128401.760499924,138302.530700341,260216.236100066,294585.702100303,NA,279369.69400011,254652.905399911,NA,NA,280727.860600222,252874.781200197,292900.712900329,NA,NA,NA,NA,NA,NA,152680.495900102,260209.139000159,NA,293275.316100102,NA,NA,293196.045600343,12622.3464999348,294080.582400318,12622.367599979,293772.502399981,152679.715200327,NA,NA,13377.5387001224,220443.122100085,NA,146285.624899901,8,24029.0365987457,10,1,5,1,26,"Geographie",6,3,3,3,3,3
81.8181818181818,96,2241.93607262251,"l","speed","ka1996he","1","o","a","0","1","0",25,2,700,"Wed Apr 12 14:03:07 2023",0,"sehr leicht","accuracy","Experiment.osexp","Bild_s4_o_2.png",1080,"he",1996,"ka","orangene","C:/Users/steff/Documents/Universität/Master Psychologie/SS 2022/Masterarbeit/Experiment/subject-13.csv",0,0,0,"a",25,20,"a","a",632.260200101882,632.260200101882,13,NA,295760.696100071,NA,152680.678199977,260091.576300096,296393.724500202,295452.912200242,34922.0741000026,NA,NA,12622.2478998825,NA,255096.249300055,295460.13690019,294901.790500153,NA,293275.38840007,NA,260216.109400149,13393.6320999637,56751.876000315,88222.7378999814,106786.371599883,128401.760499924,138302.530700341,260216.236100066,296393.801700324,NA,279369.69400011,254652.905399911,NA,NA,294601.41750006,252874.781200197,292900.712900329,NA,NA,NA,NA,NA,NA,152680.495900102,260209.139000159,NA,293275.316100102,NA,NA,294896.406600252,12622.3464999348,295760.77589998,12622.367599979,295452.836100012,152679.715200327,NA,NA,13377.5387001224,220443.122100085,NA,146285.624899901,9,24661.2967988476,11,1,5,1,26,"Geographie",6,3,3,3,3,3
83.3333333333333,96,2099.41907490914,"l","speed","ka1996he","1","b","l","0","1","0",26,2,700,"Wed Apr 12 14:03:07 2023",1,"eher leicht","accuracy","Experiment.osexp","Bild_s3_b_13.png",1080,"he",1996,"ka","orangene","C:/Users/steff/Documents/Universität/Master Psychologie/SS 2022/Masterarbeit/Experiment/subject-13.csv",0,0,0,"a",30,25,"l","l",531.732100062072,531.732100062072,13,NA,297589.180700015,NA,152680.678199977,260091.576300096,298121.621400118,297279.595400207,34922.0741000026,NA,NA,12622.2478998825,NA,255096.249300055,297286.52189998,296712.852899916,NA,296783.035200089,NA,260216.109400149,13393.6320999637,56751.876000315,88222.7378999814,106786.371599883,128401.760499924,138302.530700341,260216.236100066,298121.694799978,NA,279369.69400011,254652.905399911,NA,NA,294601.41750006,252874.781200197,296411.431500223,NA,NA,NA,NA,NA,NA,152680.495900102,260209.139000159,NA,296782.965200022,NA,NA,296707.371700089,12622.3464999348,297589.294500183,12622.367599979,297279.519299977,152679.715200327,NA,NA,13377.5387001224,220443.122100085,NA,146285.624899901,10,25193.0288989097,12,1,5,1,26,"Geographie",6,3,3,3,3,3
84.6153846153846,96,1978.86660763134,"l","speed","ka1996he","1","o","a","0","1","0",27,2,700,"Wed Apr 12 14:03:07 2023",1,"eher leicht","accuracy","Experiment.osexp","Bild_s3_o_15.png",1080,"he",1996,"ka","orangene","C:/Users/steff/Documents/Universität/Master Psychologie/SS 2022/Masterarbeit/Experiment/subject-13.csv",0,0,0,"a",35,30,"a","a",532.237000297755,532.237000297755,13,NA,299300.720500294,NA,152680.678199977,260091.576300096,299833.589599933,298992.027500179,34922.0741000026,NA,NA,12622.2478998825,NA,255096.249300055,299000.654499978,298453.658200335,NA,296783.035200089,NA,260216.109400149,13393.6320999637,56751.876000315,88222.7378999814,106786.371599883,128401.760499924,138302.530700341,260216.236100066,299833.664500155,NA,279369.69400011,254652.905399911,NA,NA,294601.41750006,252874.781200197,298152.692399919,NA,NA,NA,NA,NA,NA,152680.495900102,260209.139000159,NA,296782.965200022,NA,NA,298448.383700103,12622.3464999348,299300.80289999,12622.367599979,298991.951600183,152679.715200327,NA,NA,13377.5387001224,220443.122100085,NA,146285.624899901,11,25725.2658992074,13,1,5,1,26,"Geographie",6,3,3,3,3,3
85.7142857142857,96,1883.49830708466,"l","speed","ka1996he","1","o","a","0","1","0",28,2,700,"Wed Apr 12 14:03:07 2023",2,"eher schwer","accuracy","Experiment.osexp","Bild_s2_o_12.png",1080,"he",1996,"ka","orangene","C:/Users/steff/Documents/Universität/Master Psychologie/SS 2022/Masterarbeit/Experiment/subject-13.csv",0,0,0,"a",40,35,"a","a",643.710399977863,643.710399977863,13,NA,301045.231600292,NA,152680.678199977,260091.576300096,301689.592600334,300735.938000027,34922.0741000026,NA,NA,12622.2478998825,NA,255096.249300055,300742.933399975,300155.274299905,NA,300229.646299966,NA,260216.109400149,13393.6320999637,56751.876000315,88222.7378999814,106786.371599883,128401.760499924,138302.530700341,260216.236100066,301689.669900108,NA,279369.69400011,254652.905399911,NA,NA,294601.41750006,252874.781200197,299854.035600089,NA,NA,NA,NA,NA,NA,152680.495900102,260209.139000159,NA,300229.571700096,NA,NA,300149.951300118,12622.3464999348,301045.321700163,12622.367599979,300735.85630022,152679.715200327,NA,NA,13377.5387001224,220443.122100085,NA,146285.624899901,12,26368.9762991853,14,1,5,1,26,"Geographie",6,3,3,3,3,3
86.6666666666667,96,1789.74301995089,"l","speed","ka1996he","1","b","l","0","1","0",29,2,700,"Wed Apr 12 14:03:07 2023",2,"eher schwer","accuracy","Experiment.osexp","Bild_s2_b_4.png",1080,"he",1996,"ka","orangene","C:/Users/steff/Documents/Universität/Master Psychologie/SS 2022/Masterarbeit/Experiment/subject-13.csv",0,0,0,"a",45,40,"l","l",477.169000077993,477.169000077993,13,NA,302875.683899969,NA,152680.678199977,260091.576300096,303353.53700025,302567.710600328,34922.0741000026,NA,NA,12622.2478998825,NA,255096.249300055,302574.927899987,302019.596400205,NA,300229.646299966,NA,260216.109400149,13393.6320999637,56751.876000315,88222.7378999814,106786.371599883,128401.760499924,138302.530700341,260216.236100066,303353.612599894,NA,279369.69400011,254652.905399911,NA,NA,294601.41750006,252874.781200197,301719.269699883,NA,NA,NA,NA,NA,NA,152680.495900102,260209.139000159,NA,300229.571700096,NA,NA,302014.28270014,12622.3464999348,302875.862500165,12622.367599979,302567.633199971,152679.715200327,NA,NA,13377.5387001224,220443.122100085,NA,146285.624899901,13,26846.1452992633,15,1,5,1,26,"Geographie",6,3,3,3,3,3
81.25,96,1715.79177497188,"l","speed","ka1996he","0","b","l","0","0","0",30,2,700,"Wed Apr 12 14:03:07 2023",3,"sehr schwer","accuracy","Experiment.osexp","Bild_s1_b_2.png",1080,"he",1996,"ka","orangene","C:/Users/steff/Documents/Universität/Master Psychologie/SS 2022/Masterarbeit/Experiment/subject-13.csv",0,1,0,"a",35,30,"a","a",606.523100286722,606.523100286722,13,NA,304554.295900278,NA,152680.678199977,260091.576300096,305161.648800131,304247.018200345,34922.0741000026,NA,NA,12622.2478998825,NA,255096.249300055,304253.928000107,303667.959399987,NA,303743.55169991,NA,260216.109400149,13393.6320999637,56751.876000315,88222.7378999814,106786.371599883,128401.760499924,138302.530700341,260216.236100066,305161.742600147,NA,279369.69400011,254652.905399911,NA,NA,294601.41750006,252874.781200197,303367.349999957,NA,NA,NA,NA,NA,NA,152680.495900102,260209.139000159,NA,303743.47779993,NA,NA,303662.636300083,12622.3464999348,304554.500299972,12622.367599979,304246.941900346,152679.715200327,NA,NA,13377.5387001224,220443.122100085,NA,146285.624899901,13,27452.66839955,16,1,5,1,26,"Geographie",6,3,3,3,3,3
76.4705882352941,96,1639.49246469009,"l","speed","ka1996he","0","o","a","0","0","0",31,2,700,"Wed Apr 12 14:03:07 2023",3,"sehr schwer","accuracy","Experiment.osexp","Bild_s1_o_16.png",1080,"he",1996,"ka","orangene","C:/Users/steff/Documents/Universität/Master Psychologie/SS 2022/Masterarbeit/Experiment/subject-13.csv",0,1,0,"a",25,20,"l","l",418.703500181437,418.703500181437,13,NA,306326.240899973,NA,152680.678199977,260091.576300096,306745.672299992,306018.582700286,34922.0741000026,NA,NA,12622.2478998825,NA,255096.249300055,306025.342400186,305477.156700101,NA,303743.55169991,NA,260216.109400149,13393.6320999637,56751.876000315,88222.7378999814,106786.371599883,128401.760499924,138302.530700341,260216.236100066,306745.766799897,NA,279369.69400011,254652.905399911,NA,NA,305176.725300029,252874.781200197,303367.349999957,NA,NA,NA,NA,NA,NA,152680.495900102,260209.139000159,NA,303743.47779993,NA,NA,305471.824999899,12622.3464999348,306326.326299924,12622.367599979,306018.50680029,152679.715200327,NA,NA,13377.5387001224,220443.122100085,NA,146285.624899901,13,27871.3718997315,17,1,5,1,26,"Geographie",6,3,3,3,3,3
100,96,43223.8627665987,"l","accuracy","ka1996he","1","b","l","1","0","0",32,3,700,"Wed Apr 12 14:03:07 2023",3,"sehr schwer","accuracy","Experiment.osexp","Bild_s1_b_16.png",1080,"he",1996,"ka","orangene","C:/Users/steff/Documents/Universität/Master Psychologie/SS 2022/Masterarbeit/Experiment/subject-13.csv",0,0,0,"a",5,5,"l","l",1568.34439979866,1568.34439979866,13,NA,389320.468199905,384465.72420001,152680.678199977,312197.159599978,390889.664799906,389012.026200071,34922.0741000026,312269.72500002,NA,12622.2478998825,NA,307202.106900048,389019.321500324,307060.845700093,388490.514700301,303743.55169991,384562.325499952,260216.109400149,13393.6320999637,56751.876000315,88222.7378999814,106786.371599883,128401.760499924,138302.530700341,384562.467500102,390889.734600205,388489.665200002,279369.69400011,254652.905399911,NA,NA,306760.543399956,252874.781200197,303367.349999957,NA,NA,NA,NA,NA,384555.407499894,152680.495900102,260209.139000159,388490.470100194,303743.47779993,384465.656599961,384393.520799931,307055.56820007,12622.3464999348,389320.618600119,12622.367599979,389011.819399893,152679.715200327,312265.429500025,312230.546100065,13377.5387001224,220443.122100085,NA,146285.624899901,3,129671.588299796,3,0,25,1,26,"Geographie",6,3,3,3,3,3
100,96,32545.1635749778,"l","accuracy","ka1996he","1","o","a","1","0","0",33,3,700,"Wed Apr 12 14:03:07 2023",3,"sehr schwer","accuracy","Experiment.osexp","Bild_s1_o_1.png",1080,"he",1996,"ka","orangene","C:/Users/steff/Documents/Universität/Master Psychologie/SS 2022/Masterarbeit/Experiment/subject-13.csv",0,0,0,"a",10,10,"a","a",509.066000115126,509.066000115126,13,NA,392059.689200018,384465.72420001,152680.678199977,312197.159599978,392569.418500178,391751.740599982,34922.0741000026,312269.72500002,NA,12622.2478998825,NA,307202.106900048,391758.981800172,391205.816200003,388490.514700301,303743.55169991,384562.325499952,260216.109400149,13393.6320999637,56751.876000315,88222.7378999814,106786.371599883,128401.760499924,138302.530700341,384562.467500102,392569.486100227,388489.665200002,279369.69400011,254652.905399911,NA,NA,306760.543399956,390905.018900055,303367.349999957,NA,NA,NA,NA,NA,384555.407499894,152680.495900102,260209.139000159,388490.470100194,303743.47779993,384465.656599961,384393.520799931,391200.39190026,12622.3464999348,392059.879499953,12622.367599979,391751.660600305,152679.715200327,312265.429500025,312230.546100065,13377.5387001224,220443.122100085,NA,146285.624899901,4,130180.654299911,4,0,25,1,26,"Geographie",6,3,3,3,3,3
100,96,26190.6671799719,"l","accuracy","ka1996he","1","o","a","1","0","0",34,3,700,"Wed Apr 12 14:03:07 2023",3,"sehr schwer","accuracy","Experiment.osexp","Bild_s1_o_8.png",1080,"he",1996,"ka","orangene","C:/Users/steff/Documents/Universität/Master Psychologie/SS 2022/Masterarbeit/Experiment/subject-13.csv",0,0,0,"a",15,15,"a","a",772.681599948555,772.681599948555,13,NA,393747.202100232,384465.72420001,152680.678199977,312197.159599978,394527.249900158,393439.365900122,34922.0741000026,312269.72500002,NA,12622.2478998825,NA,307202.106900048,393446.622299962,392897.344400175,388490.514700301,303743.55169991,384562.325499952,260216.109400149,13393.6320999637,56751.876000315,88222.7378999814,106786.371599883,128401.760499924,138302.530700341,384562.467500102,394527.321000118,388489.665200002,279369.69400011,254652.905399911,NA,NA,306760.543399956,392596.575499978,303367.349999957,NA,NA,NA,NA,NA,384555.407499894,152680.495900102,260209.139000159,388490.470100194,303743.47779993,384465.656599961,384393.520799931,392891.928900033,12622.3464999348,393747.289200313,12622.367599979,393439.289300237,152679.715200327,312265.429500025,312230.546100065,13377.5387001224,220443.122100085,NA,146285.624899901,5,130953.33589986,5,0,25,1,26,"Geographie",6,3,3,3,3,3
83.3333333333333,96,22132.3717333532,"l","accuracy","ka1996he","0","b","l","0","0","0",35,3,700,"Wed Apr 12 14:03:07 2023",3,"sehr schwer","accuracy","Experiment.osexp","Bild_s1_b_10.png",1080,"he",1996,"ka","orangene","C:/Users/steff/Documents/Universität/Master Psychologie/SS 2022/Masterarbeit/Experiment/subject-13.csv",1,0,0,"a",5,5,"a","a",1840.89450025931,1840.89450025931,13,NA,395687.871400267,384465.72420001,152680.678199977,312197.159599978,397529.529000167,395379.426100291,34922.0741000026,312269.72500002,NA,12622.2478998825,NA,307202.106900048,395386.249300092,394840.029499959,388490.514700301,303743.55169991,384562.325499952,260216.109400149,13393.6320999637,56751.876000315,88222.7378999814,106786.371599883,128401.760499924,138302.530700341,384562.467500102,397529.598699883,388489.665200002,279369.69400011,254652.905399911,NA,NA,306760.543399956,394539.074700326,303367.349999957,NA,NA,NA,NA,NA,384555.407499894,152680.495900102,260209.139000159,388490.470100194,303743.47779993,384465.656599961,384393.520799931,394834.562600125,12622.3464999348,395688.058299944,12622.367599979,395379.34549991,152679.715200327,312265.429500025,312230.546100065,13377.5387001224,220443.122100085,NA,146285.624899901,5,132794.230400119,6,0,25,1,26,"Geographie",6,3,3,3,3,3
71.4285714285714,96,19152.8280000202,"l","accuracy","ka1996he","0","o","a","0","0","0",36,3,700,"Wed Apr 12 14:03:07 2023",3,"sehr schwer","accuracy","Experiment.osexp","Bild_s1_o_24.png",1080,"he",1996,"ka","orangene","C:/Users/steff/Documents/Universität/Master Psychologie/SS 2022/Masterarbeit/Experiment/subject-13.csv",1,0,0,"a",-5,-5,"l","l",1275.56560002267,1275.56560002267,13,NA,398765.285900328,384465.72420001,152680.678199977,312197.159599978,400041.727700271,398457.237999886,34922.0741000026,312269.72500002,NA,12622.2478998825,NA,307202.106900048,398464.283300098,397856.549300253,388490.514700301,303743.55169991,384562.325499952,260216.109400149,13393.6320999637,56751.876000315,88222.7378999814,106786.371599883,128401.760499924,138302.530700341,384562.467500102,400041.797500104,388489.665200002,279369.69400011,397555.97480014,NA,NA,306760.543399956,394539.074700326,303367.349999957,NA,NA,NA,NA,NA,384555.407499894,152680.495900102,260209.139000159,388490.470100194,303743.47779993,384465.656599961,384393.520799931,397851.156400051,12622.3464999348,398765.372900292,12622.367599979,398457.160700113,152679.715200327,312265.429500025,312230.546100065,13377.5387001224,220443.122100085,NA,146285.624899901,5,134069.796000142,7,0,25,1,26,"Geographie",6,3,3,3,3,3
62.5,96,16897.6983000175,"l","accuracy","ka1996he","0","o","a","0","0","0",37,3,700,"Wed Apr 12 14:03:07 2023",3,"sehr schwer","accuracy","Experiment.osexp","Bild_s1_o_10.png",1080,"he",1996,"ka","orangene","C:/Users/steff/Documents/Universität/Master Psychologie/SS 2022/Masterarbeit/Experiment/subject-13.csv",1,0,0,"a",-15,-15,"l","l",1111.79039999843,1111.79039999843,13,NA,401201.066200156,384465.72420001,152680.678199977,312197.159599978,402313.558100257,400893.526100088,34922.0741000026,312269.72500002,NA,12622.2478998825,NA,307202.106900048,400900.540700182,400352.981000207,388490.514700301,303743.55169991,384562.325499952,260216.109400149,13393.6320999637,56751.876000315,88222.7378999814,106786.371599883,128401.760499924,138302.530700341,384562.467500102,402313.628800213,388489.665200002,279369.69400011,400052.249799948,NA,NA,306760.543399956,394539.074700326,303367.349999957,NA,NA,NA,NA,NA,384555.407499894,152680.495900102,260209.139000159,388490.470100194,303743.47779993,384465.656599961,384393.520799931,400347.657800186,12622.3464999348,401201.145099942,12622.367599979,400893.446800299,152679.715200327,312265.429500025,312230.546100065,13377.5387001224,220443.122100085,NA,146285.624899901,5,135181.58640014,8,0,25,1,26,"Geographie",6,3,3,3,3,3
55.5555555555556,96,15110.6731666562,"l","accuracy","ka1996he","0","b","l","0","0","0",38,3,700,"Wed Apr 12 14:03:07 2023",3,"sehr schwer","accuracy","Experiment.osexp","Bild_s1_b_3.png",1080,"he",1996,"ka","orangene","C:/Users/steff/Documents/Universität/Master Psychologie/SS 2022/Masterarbeit/Experiment/subject-13.csv",1,0,0,"a",-25,-25,"a","a",814.472099766135,814.472099766135,13,NA,403482.290400192,384465.72420001,152680.678199977,312197.159599978,404297.665399965,403173.699600156,34922.0741000026,312269.72500002,NA,12622.2478998825,NA,307202.106900048,403180.893500336,402639.360200148,388490.514700301,303743.55169991,384562.325499952,260216.109400149,13393.6320999637,56751.876000315,88222.7378999814,106786.371599883,128401.760499924,138302.530700341,384562.467500102,404297.734499909,388489.665200002,279369.69400011,402339.321299922,NA,NA,306760.543399956,394539.074700326,303367.349999957,NA,NA,NA,NA,NA,384555.407499894,152680.495900102,260209.139000159,388490.470100194,303743.47779993,384465.656599961,384393.520799931,402634.023200255,12622.3464999348,403482.440300286,12622.367599979,403173.617800232,152679.715200327,312265.429500025,312230.546100065,13377.5387001224,220443.122100085,NA,146285.624899901,5,135996.058499906,9,0,25,1,26,"Geographie",6,3,3,3,3,3
60,96,13741.1485899705,"l","accuracy","ka1996he","1","b","l","1","0","0",39,3,700,"Wed Apr 12 14:03:07 2023",3,"sehr schwer","accuracy","Experiment.osexp","Bild_s1_b_13.png",1080,"he",1996,"ka","orangene","C:/Users/steff/Documents/Universität/Master Psychologie/SS 2022/Masterarbeit/Experiment/subject-13.csv",0,0,0,"a",-20,-20,"l","l",1415.42739979923,1415.42739979923,13,NA,405473.433800042,384465.72420001,152680.678199977,312197.159599978,406889.456000179,405165.392400231,34922.0741000026,312269.72500002,NA,12622.2478998825,NA,307202.106900048,405172.347099986,404624.241000041,388490.514700301,303743.55169991,384562.325499952,260216.109400149,13393.6320999637,56751.876000315,88222.7378999814,106786.371599883,128401.760499924,138302.530700341,384562.467500102,406889.529800043,388489.665200002,279369.69400011,404323.5057001,NA,NA,306760.543399956,394539.074700326,303367.349999957,NA,NA,NA,NA,NA,384555.407499894,152680.495900102,260209.139000159,388490.470100194,303743.47779993,384465.656599961,384393.520799931,404618.925500195,12622.3464999348,405473.518900108,12622.367599979,405165.316300001,152679.715200327,312265.429500025,312230.546100065,13377.5387001224,220443.122100085,NA,146285.624899901,6,137411.485899705,10,0,25,1,26,"Geographie",6,3,3,3,3,3
63.6363636363636,96,12557.6204544949,"l","accuracy","ka1996he","1","b","l","1","0","0",40,3,700,"Wed Apr 12 14:03:07 2023",3,"sehr schwer","accuracy","Experiment.osexp","Bild_s1_b_12.png",1080,"he",1996,"ka","orangene","C:/Users/steff/Documents/Universität/Master Psychologie/SS 2022/Masterarbeit/Experiment/subject-13.csv",0,0,0,"a",-15,-15,"l","l",722.339099738747,722.339099738747,13,NA,408086.50630014,384465.72420001,152680.678199977,312197.159599978,408809.466900304,407779.13720021,34922.0741000026,312269.72500002,NA,12622.2478998825,NA,307202.106900048,407785.944799893,407204.571800306,407279.426100198,303743.55169991,384562.325499952,260216.109400149,13393.6320999637,56751.876000315,88222.7378999814,106786.371599883,128401.760499924,138302.530700341,384562.467500102,408809.538000263,388489.665200002,279369.69400011,404323.5057001,NA,NA,306760.543399956,406903.756000102,303367.349999957,NA,NA,NA,NA,NA,384555.407499894,152680.495900102,260209.139000159,407279.3521001,303743.47779993,384465.656599961,384393.520799931,407199.180800002,12622.3464999348,408086.593500338,12622.367599979,407779.061400331,152679.715200327,312265.429500025,312230.546100065,13377.5387001224,220443.122100085,NA,146285.624899901,7,138133.824999444,11,0,25,1,26,"Geographie",6,3,3,3,3,3
58.3333333333333,96,11572.5673916362,"l","accuracy","ka1996he","0","b","l","0","0","0",41,3,700,"Wed Apr 12 14:03:07 2023",3,"sehr schwer","accuracy","Experiment.osexp","Bild_s1_b_5.png",1080,"he",1996,"ka","orangene","C:/Users/steff/Documents/Universität/Master Psychologie/SS 2022/Masterarbeit/Experiment/subject-13.csv",1,0,0,"a",-25,-25,"a","a",736.983700189739,736.983700189739,13,NA,409975.843400229,384465.72420001,152680.678199977,312197.159599978,410713.641900104,409667.526199948,34922.0741000026,312269.72500002,NA,12622.2478998825,NA,307202.106900048,409674.794299994,409126.013699919,407279.426100198,303743.55169991,384562.325499952,260216.109400149,13393.6320999637,56751.876000315,88222.7378999814,106786.371599883,128401.760499924,138302.530700341,384562.467500102,410713.712800294,388489.665200002,279369.69400011,404323.5057001,NA,NA,306760.543399956,408824.803099968,303367.349999957,NA,NA,NA,NA,NA,384555.407499894,152680.495900102,260209.139000159,407279.3521001,303743.47779993,384465.656599961,384393.520799931,409120.66669995,12622.3464999348,409976.007000078,12622.367599979,409667.450000066,152679.715200327,312265.429500025,312230.546100065,13377.5387001224,220443.122100085,NA,146285.624899901,7,138870.808699634,12,0,25,1,26,"Geographie",6,3,3,3,3,3
61.5384615384615,96,10735.7978461525,"l","accuracy","ka1996he","1","b","l","1","0","0",42,3,700,"Wed Apr 12 14:03:07 2023",3,"sehr schwer","accuracy","Experiment.osexp","Bild_s1_b_17.png",1080,"he",1996,"ka","orangene","C:/Users/steff/Documents/Universität/Master Psychologie/SS 2022/Masterarbeit/Experiment/subject-13.csv",0,0,0,"a",-20,-20,"l","l",694.563300348818,694.563300348818,13,NA,411890.213900246,384465.72420001,152680.678199977,312197.159599978,412585.442699958,411582.382400054,34922.0741000026,312269.72500002,NA,12622.2478998825,NA,307202.106900048,411589.545000345,411042.330500204,407279.426100198,303743.55169991,384562.325499952,260216.109400149,13393.6320999637,56751.876000315,88222.7378999814,106786.371599883,128401.760499924,138302.530700341,384562.467500102,412585.512500256,388489.665200002,279369.69400011,410741.39510002,NA,NA,306760.543399956,408824.803099968,303367.349999957,NA,NA,NA,NA,NA,384555.407499894,152680.495900102,260209.139000159,407279.3521001,303743.47779993,384465.656599961,384393.520799931,411036.562300287,12622.3464999348,411890.368999913,12622.367599979,411582.302700263,152679.715200327,312265.429500025,312230.546100065,13377.5387001224,220443.122100085,NA,146285.624899901,8,139565.371999983,13,0,25,1,26,"Geographie",6,3,3,3,3,3
57.1428571428571,96,10015.4199214386,"l","accuracy","ka1996he","0","b","l","0","0","0",43,3,700,"Wed Apr 12 14:03:07 2023",3,"sehr schwer","accuracy","Experiment.osexp","Bild_s1_b_21.png",1080,"he",1996,"ka","orangene","C:/Users/steff/Documents/Universität/Master Psychologie/SS 2022/Masterarbeit/Experiment/subject-13.csv",1,0,0,"a",-30,-30,"a","a",650.506900157779,650.506900157779,13,NA,413758.226899896,384465.72420001,152680.678199977,312197.159599978,414409.440800082,413449.736500159,34922.0741000026,312269.72500002,NA,12622.2478998825,NA,307202.106900048,413457.057300024,412906.731599942,407279.426100198,303743.55169991,384562.325499952,260216.109400149,13393.6320999637,56751.876000315,88222.7378999814,106786.371599883,128401.760499924,138302.530700341,384562.467500102,414409.511399921,388489.665200002,279369.69400011,410741.39510002,NA,NA,306760.543399956,412606.247399934,303367.349999957,NA,NA,NA,NA,NA,384555.407499894,152680.495900102,260209.139000159,407279.3521001,303743.47779993,384465.656599961,384393.520799931,412901.345000137,12622.3464999348,413758.412499912,12622.367599979,413449.65970004,152679.715200327,312265.429500025,312230.546100065,13377.5387001224,220443.122100085,NA,146285.624899901,8,140215.878900141,14,0,25,1,26,"Geographie",6,3,3,3,3,3
60,96,9406.75294669345,"l","accuracy","ka1996he","1","o","a","1","0","0",44,3,700,"Wed Apr 12 14:03:07 2023",3,"sehr schwer","accuracy","Experiment.osexp","Bild_s1_o_11.png",1080,"he",1996,"ka","orangene","C:/Users/steff/Documents/Universität/Master Psychologie/SS 2022/Masterarbeit/Experiment/subject-13.csv",0,0,0,"a",-25,-25,"a","a",885.415300261229,885.415300261229,13,NA,415587.427100167,384465.72420001,152680.678199977,312197.159599978,416473.695700057,415279.42890022,34922.0741000026,312269.72500002,NA,12622.2478998825,NA,307202.106900048,415286.328500137,414736.088800244,407279.426100198,303743.55169991,384562.325499952,260216.109400149,13393.6320999637,56751.876000315,88222.7378999814,106786.371599883,128401.760499924,138302.530700341,384562.467500102,416473.766400013,388489.665200002,279369.69400011,414435.614000075,NA,NA,306760.543399956,412606.247399934,303367.349999957,NA,NA,NA,NA,NA,384555.407499894,152680.495900102,260209.139000159,407279.3521001,303743.47779993,384465.656599961,384393.520799931,414730.804299936,12622.3464999348,415587.511999998,12622.367599979,415279.35330011,152679.715200327,312265.429500025,312230.546100065,13377.5387001224,220443.122100085,NA,146285.624899901,9,141101.294200402,15,0,25,1,26,"Geographie",6,3,3,3,3,3
56.25,96,8934.20111876912,"l","accuracy","ka1996he","0","b","l","0","0","0",45,3,700,"Wed Apr 12 14:03:07 2023",3,"sehr schwer","accuracy","Experiment.osexp","Bild_s1_b_9.png",1080,"he",1996,"ka","orangene","C:/Users/steff/Documents/Universität/Master Psychologie/SS 2022/Masterarbeit/Experiment/subject-13.csv",1,0,0,"a",-35,-35,"a","a",1845.92369990423,1845.92369990423,13,NA,417634.799000341,384465.72420001,152680.678199977,312197.159599978,419481.457800139,417326.973900199,34922.0741000026,312269.72500002,NA,12622.2478998825,NA,307202.106900048,417334.185500164,416787.868299987,407279.426100198,303743.55169991,384562.325499952,260216.109400149,13393.6320999637,56751.876000315,88222.7378999814,106786.371599883,128401.760499924,138302.530700341,384562.467500102,419481.52750032,388489.665200002,279369.69400011,414435.614000075,NA,NA,306760.543399956,416487.234800123,303367.349999957,NA,NA,NA,NA,NA,384555.407499894,152680.495900102,260209.139000159,407279.3521001,303743.47779993,384465.656599961,384393.520799931,416782.548000105,12622.3464999348,417635.006400291,12622.367599979,417326.897700317,152679.715200327,312265.429500025,312230.546100065,13377.5387001224,220443.122100085,NA,146285.624899901,9,142947.217900306,16,0,25,1,26,"Geographie",6,3,3,3,3,3
58.8235294117647,96,8455.66195885048,"l","accuracy","ka1996he","1","b","l","1","0","0",46,3,700,"Wed Apr 12 14:03:07 2023",3,"sehr schwer","accuracy","Experiment.osexp","Bild_s1_b_4.png",1080,"he",1996,"ka","orangene","C:/Users/steff/Documents/Universität/Master Psychologie/SS 2022/Masterarbeit/Experiment/subject-13.csv",0,0,0,"a",-30,-30,"l","l",799.035400152206,799.035400152206,13,NA,420649.819100276,384465.72420001,152680.678199977,312197.159599978,421449.763000011,420342.005700339,34922.0741000026,312269.72500002,NA,12622.2478998825,NA,307202.106900048,420349.058100022,419800.181200262,407279.426100198,303743.55169991,384562.325499952,260216.109400149,13393.6320999637,56751.876000315,88222.7378999814,106786.371599883,128401.760499924,138302.530700341,384562.467500102,421449.833299965,388489.665200002,279369.69400011,419499.935599975,NA,NA,306760.543399956,416487.234800123,303367.349999957,NA,NA,NA,NA,NA,384555.407499894,152680.495900102,260209.139000159,407279.3521001,303743.47779993,384465.656599961,384393.520799931,419794.900500216,12622.3464999348,420649.90389999,12622.367599979,420341.926600318,152679.715200327,312265.429500025,312230.546100065,13377.5387001224,220443.122100085,NA,146285.624899901,10,143746.253300458,17,0,25,1,26,"Geographie",6,3,3,3,3,3
61.1111111111111,96,8030.79774448027,"l","accuracy","ka1996he","1","o","a","1","0","0",47,3,700,"Wed Apr 12 14:03:07 2023",3,"sehr schwer","accuracy","Experiment.osexp","Bild_s1_o_2.png",1080,"he",1996,"ka","orangene","C:/Users/steff/Documents/Universität/Master Psychologie/SS 2022/Masterarbeit/Experiment/subject-13.csv",0,0,0,"a",-25,-25,"a","a",808.106100186706,808.106100186706,13,NA,422624.739200343,384465.72420001,152680.678199977,312197.159599978,423433.46469989,422317.227200139,34922.0741000026,312269.72500002,NA,12622.2478998825,NA,307202.106900048,422324.252200313,421779.789700173,407279.426100198,303743.55169991,384562.325499952,260216.109400149,13393.6320999637,56751.876000315,88222.7378999814,106786.371599883,128401.760499924,138302.530700341,384562.467500102,423433.534299955,388489.665200002,279369.69400011,419499.935599975,NA,NA,306760.543399956,421479.363699909,303367.349999957,NA,NA,NA,NA,NA,384555.407499894,152680.495900102,260209.139000159,407279.3521001,303743.47779993,384465.656599961,384393.520799931,421774.527300149,12622.3464999348,422624.819600023,12622.367599979,422317.151899915,152679.715200327,312265.429500025,312230.546100065,13377.5387001224,220443.122100085,NA,146285.624899901,11,144554.359400645,18,0,25,1,26,"Geographie",6,3,3,3,3,3
63.1578947368421,96,7686.66041581156,"l","accuracy","ka1996he","1","b","l","1","0","0",48,3,700,"Wed Apr 12 14:03:07 2023",2,"eher schwer","accuracy","Experiment.osexp","Bild_s2_b_13.png",1080,"he",1996,"ka","orangene","C:/Users/steff/Documents/Universität/Master Psychologie/SS 2022/Masterarbeit/Experiment/subject-13.csv",0,0,0,"a",-20,-20,"l","l",1492.18849977478,1492.18849977478,13,NA,424628.649500199,384465.72420001,152680.678199977,312197.159599978,426121.669699904,424320.596400183,34922.0741000026,312269.72500002,NA,12622.2478998825,NA,307202.106900048,424327.50819996,423755.461300258,423829.162400216,303743.55169991,384562.325499952,260216.109400149,13393.6320999637,56751.876000315,88222.7378999814,106786.371599883,128401.760499924,138302.530700341,384562.467500102,426121.739400085,388489.665200002,279369.69400011,419499.935599975,NA,NA,306760.543399956,423454.808299895,303367.349999957,NA,NA,NA,NA,NA,384555.407499894,152680.495900102,260209.139000159,423829.091799911,303743.47779993,384465.656599961,384393.520799931,423750.027500093,12622.3464999348,424628.738900181,12622.367599979,424320.520699956,152679.715200327,312265.429500025,312230.546100065,13377.5387001224,220443.122100085,NA,146285.624899901,12,146046.54790042,19,0,25,1,26,"Geographie",6,3,3,3,3,3
65,96,7337.24382501096,"l","accuracy","ka1996he","1","b","l","1","0","0",49,3,700,"Wed Apr 12 14:03:07 2023",2,"eher schwer","accuracy","Experiment.osexp","Bild_s2_b_3.png",1080,"he",1996,"ka","orangene","C:/Users/steff/Documents/Universität/Master Psychologie/SS 2022/Masterarbeit/Experiment/subject-13.csv",0,0,0,"a",-15,-15,"l","l",698.328599799424,698.328599799424,13,NA,427310.502400156,384465.72420001,152680.678199977,312197.159599978,428009.481300134,427002.666899934,34922.0741000026,312269.72500002,NA,12622.2478998825,NA,307202.106900048,427009.985500015,426441.114200279,423829.162400216,303743.55169991,384562.325499952,260216.109400149,13393.6320999637,56751.876000315,88222.7378999814,106786.371599883,128401.760499924,138302.530700341,384562.467500102,428009.551700205,388489.665200002,279369.69400011,419499.935599975,NA,NA,306760.543399956,426140.329500195,303367.349999957,NA,NA,NA,NA,NA,384555.407499894,152680.495900102,260209.139000159,423829.091799911,303743.47779993,384465.656599961,384393.520799931,426435.761600267,12622.3464999348,427310.59510028,12622.367599979,427002.58730026,152679.715200327,312265.429500025,312230.546100065,13377.5387001224,220443.122100085,NA,146285.624899901,13,146744.876500219,20,0,25,1,26,"Geographie",6,3,3,3,3,3
66.6666666666667,96,7013.40169523887,"l","accuracy","ka1996he","1","o","a","1","0","0",50,3,700,"Wed Apr 12 14:03:07 2023",2,"eher schwer","accuracy","Experiment.osexp","Bild_s2_o_1.png",1080,"he",1996,"ka","orangene","C:/Users/steff/Documents/Universität/Master Psychologie/SS 2022/Masterarbeit/Experiment/subject-13.csv",0,0,0,"a",-10,-10,"a","a",536.559099797159,536.559099797159,13,NA,429184.272900224,384465.72420001,152680.678199977,312197.159599978,429721.434100065,428876.125300303,34922.0741000026,312269.72500002,NA,12622.2478998825,NA,307202.106900048,428883.092599921,428340.273099951,423829.162400216,303743.55169991,384562.325499952,260216.109400149,13393.6320999637,56751.876000315,88222.7378999814,106786.371599883,128401.760499924,138302.530700341,384562.467500102,429721.508900169,388489.665200002,279369.69400011,419499.935599975,NA,NA,306760.543399956,428039.757400285,303367.349999957,NA,NA,NA,NA,NA,384555.407499894,152680.495900102,260209.139000159,423829.091799911,303743.47779993,384465.656599961,384393.520799931,428334.98220006,12622.3464999348,429184.357100166,12622.367599979,428876.048900187,152679.715200327,312265.429500025,312230.546100065,13377.5387001224,220443.122100085,NA,146285.624899901,14,147281.435600016,21,0,25,1,26,"Geographie",6,3,3,3,3,3
63.6363636363636,96,6753.92832727679,"l","accuracy","ka1996he","0","b","l","0","0","0",51,3,700,"Wed Apr 12 14:03:07 2023",2,"eher schwer","accuracy","Experiment.osexp","Bild_s2_b_21.png",1080,"he",1996,"ka","orangene","C:/Users/steff/Documents/Universität/Master Psychologie/SS 2022/Masterarbeit/Experiment/subject-13.csv",1,0,0,"a",-20,-20,"a","a",1304.98760007322,1304.98760007322,13,NA,430927.847899962,384465.72420001,152680.678199977,312197.159599978,432233.827200253,430619.973900262,34922.0741000026,312269.72500002,NA,12622.2478998825,NA,307202.106900048,430626.787600107,430053.360400256,423829.162400216,303743.55169991,384562.325499952,260216.109400149,13393.6320999637,56751.876000315,88222.7378999814,106786.371599883,128401.760499924,138302.530700341,384562.467500102,432233.897800092,388489.665200002,279369.69400011,419499.935599975,NA,NA,306760.543399956,429752.798100002,303367.349999957,NA,NA,NA,NA,NA,384555.407499894,152680.495900102,260209.139000159,423829.091799911,303743.47779993,384465.656599961,384393.520799931,430048.069700133,12622.3464999348,430927.936499938,12622.367599979,430619.897400029,152679.715200327,312265.429500025,312230.546100065,13377.5387001224,220443.122100085,NA,146285.624899901,14,148586.423200089,22,0,25,1,26,"Geographie",6,3,3,3,3,3
65.2173913043478,96,6488.71978260982,"l","accuracy","ka1996he","1","o","a","1","0","0",52,3,700,"Wed Apr 12 14:03:07 2023",2,"eher schwer","accuracy","Experiment.osexp","Bild_s2_o_17.png",1080,"he",1996,"ka","orangene","C:/Users/steff/Documents/Universität/Master Psychologie/SS 2022/Masterarbeit/Experiment/subject-13.csv",0,0,0,"a",-15,-15,"a","a",654.131799936295,654.131799936295,13,NA,433418.69150009,384465.72420001,152680.678199977,312197.159599978,434073.583700228,433110.733400099,34922.0741000026,312269.72500002,NA,12622.2478998825,NA,307202.106900048,433117.617100011,432549.768799916,423829.162400216,303743.55169991,384562.325499952,260216.109400149,13393.6320999637,56751.876000315,88222.7378999814,106786.371599883,128401.760499924,138302.530700341,384562.467500102,434073.652199935,388489.665200002,279369.69400011,432248.457300011,NA,NA,306760.543399956,429752.798100002,303367.349999957,NA,NA,NA,NA,NA,384555.407499894,152680.495900102,260209.139000159,423829.091799911,303743.47779993,384465.656599961,384393.520799931,432544.423799962,12622.3464999348,433418.779999949,12622.367599979,433110.658500344,152679.715200327,312265.429500025,312230.546100065,13377.5387001224,220443.122100085,NA,146285.624899901,15,149240.555000026,23,0,25,1,26,"Geographie",6,3,3,3,3,3
66.6666666666667,96,6271.03968750453,"l","accuracy","ka1996he","1","o","a","1","0","0",53,3,700,"Wed Apr 12 14:03:07 2023",2,"eher schwer","accuracy","Experiment.osexp","Bild_s2_o_21.png",1080,"he",1996,"ka","orangene","C:/Users/steff/Documents/Universität/Master Psychologie/SS 2022/Masterarbeit/Experiment/subject-13.csv",0,0,0,"a",-10,-10,"a","a",1264.39750008285,1264.39750008285,13,NA,435256.299700122,384465.72420001,152680.678199977,312197.159599978,436521.458799951,434948.503999971,34922.0741000026,312269.72500002,NA,12622.2478998825,NA,307202.106900048,434955.700000282,434403.290899936,423829.162400216,303743.55169991,384562.325499952,260216.109400149,13393.6320999637,56751.876000315,88222.7378999814,106786.371599883,128401.760499924,138302.530700341,384562.467500102,436521.529499907,388489.665200002,279369.69400011,432248.457300011,NA,NA,306760.543399956,434102.675800212,303367.349999957,NA,NA,NA,NA,NA,384555.407499894,152680.495900102,260209.139000159,423829.091799911,303743.47779993,384465.656599961,384393.520799931,434397.899399977,12622.3464999348,435256.492500193,12622.367599979,434948.374200147,152679.715200327,312265.429500025,312230.546100065,13377.5387001224,220443.122100085,NA,146285.624899901,16,150504.952500109,24,0,25,1,26,"Geographie",6,3,3,3,3,3
68,96,6050.76672000811,"l","accuracy","ka1996he","1","b","l","1","0","0",54,3,700,"Wed Apr 12 14:03:07 2023",2,"eher schwer","accuracy","Experiment.osexp","Bild_s2_b_18.png",1080,"he",1996,"ka","orangene","C:/Users/steff/Documents/Universität/Master Psychologie/SS 2022/Masterarbeit/Experiment/subject-13.csv",0,0,0,"a",-5,-5,"l","l",764.215500093997,764.215500093997,13,NA,437708.638200071,384465.72420001,152680.678199977,312197.159599978,438473.758600187,437400.790099986,34922.0741000026,312269.72500002,NA,12622.2478998825,NA,307202.106900048,437407.755299937,436851.246700156,423829.162400216,303743.55169991,384562.325499952,260216.109400149,13393.6320999637,56751.876000315,88222.7378999814,106786.371599883,128401.760499924,138302.530700341,384562.467500102,438473.831300158,388489.665200002,279369.69400011,432248.457300011,NA,NA,306760.543399956,436550.700299907,303367.349999957,NA,NA,NA,NA,NA,384555.407499894,152680.495900102,260209.139000159,423829.091799911,303743.47779993,384465.656599961,384393.520799931,436845.944399945,12622.3464999348,437708.721600007,12622.367599979,437400.710599963,152679.715200327,312265.429500025,312230.546100065,13377.5387001224,220443.122100085,NA,146285.624899901,17,151269.168000203,25,0,25,1,26,"Geographie",6,3,3,3,3,3
69.2307692307692,96,5842.44585769752,"l","accuracy","ka1996he","1","o","a","1","0","0",55,3,700,"Wed Apr 12 14:03:07 2023",2,"eher schwer","accuracy","Experiment.osexp","Bild_s2_o_9.png",1080,"he",1996,"ka","orangene","C:/Users/steff/Documents/Universität/Master Psychologie/SS 2022/Masterarbeit/Experiment/subject-13.csv",0,0,0,"a",0,0,"a","a",634.424299933016,634.424299933016,13,NA,439678.400600329,384465.72420001,152680.678199977,312197.159599978,440313.591900282,439370.378400199,34922.0741000026,312269.72500002,NA,12622.2478998825,NA,307202.106900048,439377.377000172,438799.919399898,423829.162400216,303743.55169991,384562.325499952,260216.109400149,13393.6320999637,56751.876000315,88222.7378999814,106786.371599883,128401.760499924,138302.530700341,384562.467500102,440313.66420025,388489.665200002,279369.69400011,432248.457300011,NA,NA,306760.543399956,438499.176600017,303367.349999957,NA,NA,NA,NA,NA,384555.407499894,152680.495900102,260209.139000159,423829.091799911,303743.47779993,384465.656599961,384393.520799931,438794.402900152,12622.3464999348,439678.490000311,12622.367599979,439370.299899951,152679.715200327,312265.429500025,312230.546100065,13377.5387001224,220443.122100085,NA,146285.624899901,18,151903.592300136,26,0,25,1,26,"Geographie",6,3,3,3,3,3
70.3703703703704,96,5646.16104813845,"l","accuracy","ka1996he","1","o","a","1","0","0",56,3,700,"Wed Apr 12 14:03:07 2023",1,"eher leicht","accuracy","Experiment.osexp","Bild_s3_o_24.png",1080,"he",1996,"ka","orangene","C:/Users/steff/Documents/Universität/Master Psychologie/SS 2022/Masterarbeit/Experiment/subject-13.csv",0,0,0,"a",5,5,"a","a",542.755999602377,542.755999602377,13,NA,441530.076799914,384465.72420001,152680.678199977,312197.159599978,442073.482400272,441221.346900333,34922.0741000026,312269.72500002,NA,12622.2478998825,NA,307202.106900048,441228.568300139,440648.739499971,440721.119500231,303743.55169991,384562.325499952,260216.109400149,13393.6320999637,56751.876000315,88222.7378999814,106786.371599883,128401.760499924,138302.530700341,384562.467500102,442073.550300207,388489.665200002,279369.69400011,432248.457300011,NA,NA,306760.543399956,440348.157499917,303367.349999957,NA,NA,NA,NA,NA,384555.407499894,152680.495900102,260209.139000159,440721.059199888,303743.47779993,384465.656599961,384393.520799931,440643.340700306,12622.3464999348,441530.159000307,12622.367599979,441221.268299967,152679.715200327,312265.429500025,312230.546100065,13377.5387001224,220443.122100085,NA,146285.624899901,19,152446.348299738,27,0,25,1,26,"Geographie",6,3,3,3,3,3
71.4285714285714,96,5465.2685142854,"l","accuracy","ka1996he","1","o","a","1","0","0",57,3,700,"Wed Apr 12 14:03:07 2023",1,"eher leicht","accuracy","Experiment.osexp","Bild_s3_o_9.png",1080,"he",1996,"ka","orangene","C:/Users/steff/Documents/Universität/Master Psychologie/SS 2022/Masterarbeit/Experiment/subject-13.csv",0,0,0,"a",10,10,"a","a",581.170100253075,581.170100253075,13,NA,443235.620700289,384465.72420001,152680.678199977,312197.159599978,443817.495000083,442926.945100073,34922.0741000026,312269.72500002,NA,12622.2478998825,NA,307202.106900048,442933.757999912,442392.898499966,440721.119500231,303743.55169991,384562.325499952,260216.109400149,13393.6320999637,56751.876000315,88222.7378999814,106786.371599883,128401.760499924,138302.530700341,384562.467500102,443817.563199904,388489.665200002,279369.69400011,432248.457300011,NA,NA,306760.543399956,442091.758999974,303367.349999957,NA,NA,NA,NA,NA,384555.407499894,152680.495900102,260209.139000159,440721.059199888,303743.47779993,384465.656599961,384393.520799931,442387.511100154,12622.3464999348,443235.742900055,12622.367599979,442926.867000293,152679.715200327,312265.429500025,312230.546100065,13377.5387001224,220443.122100085,NA,146285.624899901,20,153027.518399991,28,0,25,1,26,"Geographie",6,3,3,3,3,3
72.4137931034483,96,5299.04587931353,"l","accuracy","ka1996he","1","b","l","1","0","0",58,3,700,"Wed Apr 12 14:03:07 2023",1,"eher leicht","accuracy","Experiment.osexp","Bild_s3_b_9.png",1080,"he",1996,"ka","orangene","C:/Users/steff/Documents/Universität/Master Psychologie/SS 2022/Masterarbeit/Experiment/subject-13.csv",0,0,0,"a",15,15,"l","l",644.812100101262,644.812100101262,13,NA,445012.000400107,384465.72420001,152680.678199977,312197.159599978,445657.698000316,444704.3765001,34922.0741000026,312269.72500002,NA,12622.2478998825,NA,307202.106900048,444711.253300309,444149.067400023,440721.119500231,303743.55169991,384562.325499952,260216.109400149,13393.6320999637,56751.876000315,88222.7378999814,106786.371599883,128401.760499924,138302.530700341,384562.467500102,445657.767700031,388489.665200002,279369.69400011,432248.457300011,NA,NA,306760.543399956,443847.3538002,303367.349999957,NA,NA,NA,NA,NA,384555.407499894,152680.495900102,260209.139000159,440721.059199888,303743.47779993,384465.656599961,384393.520799931,444143.768399954,12622.3464999348,445012.087299954,12622.367599979,444704.242900014,152679.715200327,312265.429500025,312230.546100065,13377.5387001224,220443.122100085,NA,146285.624899901,21,153672.330500092,29,0,25,1,26,"Geographie",6,3,3,3,3,3
73.3333333333333,96,5142.26730333952,"l","accuracy","ka1996he","1","o","a","1","0","0",59,3,700,"Wed Apr 12 14:03:07 2023",1,"eher leicht","accuracy","Experiment.osexp","Bild_s3_o_22.png",1080,"he",1996,"ka","orangene","C:/Users/steff/Documents/Universität/Master Psychologie/SS 2022/Masterarbeit/Experiment/subject-13.csv",0,0,0,"a",20,20,"a","a",595.688600093126,595.688600093126,13,NA,446821.105200332,384465.72420001,152680.678199977,312197.159599978,447417.746100109,446511.815200094,34922.0741000026,312269.72500002,NA,12622.2478998825,NA,307202.106900048,446519.08730017,445974.549300037,440721.119500231,303743.55169991,384562.325499952,260216.109400149,13393.6320999637,56751.876000315,88222.7378999814,106786.371599883,128401.760499924,138302.530700341,384562.467500102,447417.819700204,388489.665200002,279369.69400011,432248.457300011,NA,NA,306760.543399956,445673.69180033,303367.349999957,NA,NA,NA,NA,NA,384555.407499894,152680.495900102,260209.139000159,440721.059199888,303743.47779993,384465.656599961,384393.520799931,445969.203300308,12622.3464999348,446821.183899883,12622.367599979,446511.737800203,152679.715200327,312265.429500025,312230.546100065,13377.5387001224,220443.122100085,NA,146285.624899901,22,154268.019100185,30,0,25,1,26,"Geographie",6,3,3,3,3,3
74.1935483870968,96,5000.64070323001,"l","accuracy","ka1996he","1","b","l","1","0","0",60,3,700,"Wed Apr 12 14:03:07 2023",1,"eher leicht","accuracy","Experiment.osexp","Bild_s3_b_6.png",1080,"he",1996,"ka","orangene","C:/Users/steff/Documents/Universität/Master Psychologie/SS 2022/Masterarbeit/Experiment/subject-13.csv",0,0,0,"a",25,25,"l","l",751.842699944973,751.842699944973,13,NA,448600.957400165,384465.72420001,152680.678199977,312197.159599978,449353.747600224,448293.312299997,34922.0741000026,312269.72500002,NA,12622.2478998825,NA,307202.106900048,448300.454400014,447746.751900297,440721.119500231,303743.55169991,384562.325499952,260216.109400149,13393.6320999637,56751.876000315,88222.7378999814,106786.371599883,128401.760499924,138302.530700341,384562.467500102,449353.818400297,388489.665200002,279369.69400011,432248.457300011,NA,NA,306760.543399956,447446.18570013,303367.349999957,NA,NA,NA,NA,NA,384555.407499894,152680.495900102,260209.139000159,440721.059199888,303743.47779993,384465.656599961,384393.520799931,447741.335600149,12622.3464999348,448601.059000008,12622.367599979,448293.232900091,152679.715200327,312265.429500025,312230.546100065,13377.5387001224,220443.122100085,NA,146285.624899901,23,155019.86180013,31,0,25,1,26,"Geographie",6,3,3,3,3,3
75,96,4858.68179687532,"l","accuracy","ka1996he","1","o","a","1","0","0",61,3,700,"Wed Apr 12 14:03:07 2023",1,"eher leicht","accuracy","Experiment.osexp","Bild_s3_o_5.png",1080,"he",1996,"ka","orangene","C:/Users/steff/Documents/Universität/Master Psychologie/SS 2022/Masterarbeit/Experiment/subject-13.csv",0,0,0,"a",30,30,"a","a",457.955699879676,457.955699879676,13,NA,450527.283200063,384465.72420001,152680.678199977,312197.159599978,450986.339500174,450219.091500156,34922.0741000026,312269.72500002,NA,12622.2478998825,NA,307202.106900048,450226.214400027,449670.888000168,440721.119500231,303743.55169991,384562.325499952,260216.109400149,13393.6320999637,56751.876000315,88222.7378999814,106786.371599883,128401.760499924,138302.530700341,384562.467500102,450986.409599893,388489.665200002,279369.69400011,432248.457300011,NA,NA,306760.543399956,449370.236400049,303367.349999957,NA,NA,NA,NA,NA,384555.407499894,152680.495900102,260209.139000159,440721.059199888,303743.47779993,384465.656599961,384393.520799931,449665.455000009,12622.3464999348,450527.440200094,12622.367599979,450219.014300033,152679.715200327,312265.429500025,312230.546100065,13377.5387001224,220443.122100085,NA,146285.624899901,24,155477.81750001,32,0,25,1,26,"Geographie",6,3,3,3,3,3
75.7575757575758,96,4727.12270909864,"l","accuracy","ka1996he","1","o","a","1","0","0",62,3,700,"Wed Apr 12 14:03:07 2023",1,"eher leicht","accuracy","Experiment.osexp","Bild_s3_o_3.png",1080,"he",1996,"ka","orangene","C:/Users/steff/Documents/Universität/Master Psychologie/SS 2022/Masterarbeit/Experiment/subject-13.csv",0,0,0,"a",35,35,"a","a",517.231900244951,517.231900244951,13,NA,452164.049200248,384465.72420001,152680.678199977,312197.159599978,452682.532600127,451856.172299944,34922.0741000026,312269.72500002,NA,12622.2478998825,NA,307202.106900048,451863.268400077,451308.419500012,440721.119500231,303743.55169991,384562.325499952,260216.109400149,13393.6320999637,56751.876000315,88222.7378999814,106786.371599883,128401.760499924,138302.530700341,384562.467500102,452682.602200191,388489.665200002,279369.69400011,432248.457300011,NA,NA,306760.543399956,451008.032500278,303367.349999957,NA,NA,NA,NA,NA,384555.407499894,152680.495900102,260209.139000159,440721.059199888,303743.47779993,384465.656599961,384393.520799931,451303.080399986,12622.3464999348,452164.254900068,12622.367599979,451856.092500035,152679.715200327,312265.429500025,312230.546100065,13377.5387001224,220443.122100085,NA,146285.624899901,25,155995.049400255,33,0,25,1,26,"Geographie",6,3,3,3,3,3
76.4705882352941,96,4604.35765001046,"l","accuracy","ka1996he","1","o","a","1","0","0",63,3,700,"Wed Apr 12 14:03:07 2023",1,"eher leicht","accuracy","Experiment.osexp","Bild_s3_o_7.png",1080,"he",1996,"ka","orangene","C:/Users/steff/Documents/Universität/Master Psychologie/SS 2022/Masterarbeit/Experiment/subject-13.csv",0,0,0,"a",40,40,"a","a",553.11070010066,553.11070010066,13,NA,453855.700000189,384465.72420001,152680.678199977,312197.159599978,454409.824999981,453547.818900086,34922.0741000026,312269.72500002,NA,12622.2478998825,NA,307202.106900048,453554.728100076,453004.040000029,440721.119500231,303743.55169991,384562.325499952,260216.109400149,13393.6320999637,56751.876000315,88222.7378999814,106786.371599883,128401.760499924,138302.530700341,384562.467500102,454409.897699952,388489.665200002,279369.69400011,432248.457300011,NA,NA,306760.543399956,452703.44209997,303367.349999957,NA,NA,NA,NA,NA,384555.407499894,152680.495900102,260209.139000159,440721.059199888,303743.47779993,384465.656599961,384393.520799931,452998.708200175,12622.3464999348,453855.805300176,12622.367599979,453547.739200294,152679.715200327,312265.429500025,312230.546100065,13377.5387001224,220443.122100085,NA,146285.624899901,26,156548.160100356,34,0,25,1,26,"Geographie",6,3,3,3,3,3
77.1428571428571,96,4486.52638286086,"l","accuracy","ka1996he","1","o","a","1","0","0",64,3,700,"Wed Apr 12 14:03:07 2023",2,"eher schwer","accuracy","Experiment.osexp","Bild_s2_o_7.png",1080,"he",1996,"ka","orangene","C:/Users/steff/Documents/Universität/Master Psychologie/SS 2022/Masterarbeit/Experiment/subject-13.csv",0,0,0,"a",45,45,"a","a",480.263299774379,480.263299774379,13,NA,455640.564499889,384465.72420001,152680.678199977,312197.159599978,456121.69239996,455332.592099905,34922.0741000026,312269.72500002,NA,12622.2478998825,NA,307202.106900048,455339.458200149,454726.566700265,454801.135600079,303743.55169991,384562.325499952,260216.109400149,13393.6320999637,56751.876000315,88222.7378999814,106786.371599883,128401.760499924,138302.530700341,384562.467500102,456121.767700184,388489.665200002,279369.69400011,432248.457300011,NA,NA,306760.543399956,454425.840700045,303367.349999957,NA,NA,NA,NA,NA,384555.407499894,152680.495900102,260209.139000159,454801.064400002,303743.47779993,384465.656599961,384393.520799931,454721.324200276,12622.3464999348,455640.646700282,12622.367599979,455332.517300267,152679.715200327,312265.429500025,312230.546100065,13377.5387001224,220443.122100085,NA,146285.624899901,27,157028.42340013,35,0,25,1,26,"Geographie",6,3,3,3,3,3
77.7777777777778,96,4375.59774167474,"l","accuracy","ka1996he","1","o","a","1","0","0",65,3,700,"Wed Apr 12 14:03:07 2023",2,"eher schwer","accuracy","Experiment.osexp","Bild_s2_o_20.png",1080,"he",1996,"ka","orangene","C:/Users/steff/Documents/Universität/Master Psychologie/SS 2022/Masterarbeit/Experiment/subject-13.csv",0,0,0,"a",50,50,"a","a",493.095300160348,493.095300160348,13,NA,457291.611200199,384465.72420001,152680.678199977,312197.159599978,457785.711800214,456983.547100332,34922.0741000026,312269.72500002,NA,12622.2478998825,NA,307202.106900048,456990.887599997,456443.738000002,454801.135600079,303743.55169991,384562.325499952,260216.109400149,13393.6320999637,56751.876000315,88222.7378999814,106786.371599883,128401.760499924,138302.530700341,384562.467500102,457785.782400053,388489.665200002,279369.69400011,432248.457300011,NA,NA,306760.543399956,456142.786900047,303367.349999957,NA,NA,NA,NA,NA,384555.407499894,152680.495900102,260209.139000159,454801.064400002,303743.47779993,384465.656599961,384393.520799931,456438.317100052,12622.3464999348,457291.802499909,12622.367599979,456983.468800317,152679.715200327,312265.429500025,312230.546100065,13377.5387001224,220443.122100085,NA,146285.624899901,28,157521.51870029,36,0,25,1,26,"Geographie",6,3,3,3,3,3
78.3783783783784,96,4273.97350812129,"l","accuracy","ka1996he","1","b","l","1","0","0",66,3,700,"Wed Apr 12 14:03:07 2023",2,"eher schwer","accuracy","Experiment.osexp","Bild_s2_b_10.png",1080,"he",1996,"ka","orangene","C:/Users/steff/Documents/Universität/Master Psychologie/SS 2022/Masterarbeit/Experiment/subject-13.csv",0,0,0,"a",55,55,"l","l",615.501100197434,615.501100197434,13,NA,458977.301000152,384465.72420001,152680.678199977,312197.159599978,459593.646300025,458669.323400129,34922.0741000026,312269.72500002,NA,12622.2478998825,NA,307202.106900048,458676.181100309,458102.234700229,454801.135600079,303743.55169991,384562.325499952,260216.109400149,13393.6320999637,56751.876000315,88222.7378999814,106786.371599883,128401.760499924,138302.530700341,384562.467500102,459593.732800335,388489.665200002,279369.69400011,432248.457300011,NA,NA,306760.543399956,457800.673200283,303367.349999957,NA,NA,NA,NA,NA,384555.407499894,152680.495900102,260209.139000159,454801.064400002,303743.47779993,384465.656599961,384393.520799931,458096.964300144,12622.3464999348,458977.391100023,12622.367599979,458669.248200022,152679.715200327,312265.429500025,312230.546100065,13377.5387001224,220443.122100085,NA,146285.624899901,29,158137.019800488,37,0,25,1,26,"Geographie",6,3,3,3,3,3
78.9473684210526,96,4176.27676054345,"l","accuracy","ka1996he","1","o","a","1","0","0",67,3,700,"Wed Apr 12 14:03:07 2023",2,"eher schwer","accuracy","Experiment.osexp","Bild_s2_o_23.png",1080,"he",1996,"ka","orangene","C:/Users/steff/Documents/Universität/Master Psychologie/SS 2022/Masterarbeit/Experiment/subject-13.csv",0,0,0,"a",60,60,"a","a",561.497100163251,561.497100163251,13,NA,460775.317100342,384465.72420001,152680.678199977,312197.159599978,461337.848100346,460467.391300015,34922.0741000026,312269.72500002,NA,12622.2478998825,NA,307202.106900048,460474.257700145,459923.411100172,454801.135600079,303743.55169991,384562.325499952,260216.109400149,13393.6320999637,56751.876000315,88222.7378999814,106786.371599883,128401.760499924,138302.530700341,384562.467500102,461337.919699959,388489.665200002,279369.69400011,432248.457300011,NA,NA,306760.543399956,459623.186300043,303367.349999957,NA,NA,NA,NA,NA,384555.407499894,152680.495900102,260209.139000159,454801.064400002,303743.47779993,384465.656599961,384393.520799931,459918.033900205,12622.3464999348,460775.405500084,12622.367599979,460467.314600013,152679.715200327,312265.429500025,312230.546100065,13377.5387001224,220443.122100085,NA,146285.624899901,30,158698.516900651,38,0,25,1,26,"Geographie",6,3,3,3,3,3
79.4871794871795,96,4086.13678719848,"l","accuracy","ka1996he","1","o","a","1","0","0",68,3,700,"Wed Apr 12 14:03:07 2023",2,"eher schwer","accuracy","Experiment.osexp","Bild_s2_o_11.png",1080,"he",1996,"ka","orangene","C:/Users/steff/Documents/Universität/Master Psychologie/SS 2022/Masterarbeit/Experiment/subject-13.csv",0,0,0,"a",65,65,"a","a",660.817800089717,660.817800089717,13,NA,462499.921600334,384465.72420001,152680.678199977,312197.159599978,463161.646699999,462192.061000038,34922.0741000026,312269.72500002,NA,12622.2478998825,NA,307202.106900048,462199.332599994,461650.441300124,454801.135600079,303743.55169991,384562.325499952,260216.109400149,13393.6320999637,56751.876000315,88222.7378999814,106786.371599883,128401.760499924,138302.530700341,384562.467500102,463161.717500072,388489.665200002,279369.69400011,432248.457300011,NA,NA,306760.543399956,461349.619000219,303367.349999957,NA,NA,NA,NA,NA,384555.407499894,152680.495900102,260209.139000159,454801.064400002,303743.47779993,384465.656599961,384393.520799931,461645.070299972,12622.3464999348,462500.079300255,12622.367599979,462191.984300036,152679.715200327,312265.429500025,312230.546100065,13377.5387001224,220443.122100085,NA,146285.624899901,31,159359.334700741,39,0,25,1,26,"Geographie",6,3,3,3,3,3
80,96,4009.06839001691,"l","accuracy","ka1996he","1","o","a","1","0","0",69,3,700,"Wed Apr 12 14:03:07 2023",2,"eher schwer","accuracy","Experiment.osexp","Bild_s2_o_13.png",1080,"he",1996,"ka","orangene","C:/Users/steff/Documents/Universität/Master Psychologie/SS 2022/Masterarbeit/Experiment/subject-13.csv",0,0,0,"a",70,70,"a","a",1003.40089993551,1003.40089993551,13,NA,464333.365800325,384465.72420001,152680.678199977,312197.159599978,465337.606899906,464025.485500228,34922.0741000026,312269.72500002,NA,12622.2478998825,NA,307202.106900048,464032.664299943,463483.62760013,454801.135600079,303743.55169991,384562.325499952,260216.109400149,13393.6320999637,56751.876000315,88222.7378999814,106786.371599883,128401.760499924,138302.530700341,384562.467500102,465337.677100208,388489.665200002,279369.69400011,432248.457300011,NA,NA,306760.543399956,463183.195100166,303367.349999957,NA,NA,NA,NA,NA,384555.407499894,152680.495900102,260209.139000159,454801.064400002,303743.47779993,384465.656599961,384393.520799931,463478.275599889,12622.3464999348,464333.441600204,12622.367599979,464025.408199988,152679.715200327,312265.429500025,312230.546100065,13377.5387001224,220443.122100085,NA,146285.624899901,32,160362.735600676,40,0,25,1,26,"Geographie",6,3,3,3,3,3
80.4878048780488,96,3924.20445612018,"l","accuracy","ka1996he","1","o","a","1","0","0",70,3,700,"Wed Apr 12 14:03:07 2023",2,"eher schwer","accuracy","Experiment.osexp","Bild_s2_o_5.png",1080,"he",1996,"ka","orangene","C:/Users/steff/Documents/Universität/Master Psychologie/SS 2022/Masterarbeit/Experiment/subject-13.csv",0,0,0,"a",75,75,"a","a",529.647100251168,529.647100251168,13,NA,466519.062499981,384465.72420001,152680.678199977,312197.159599978,467049.652399961,466207.765200175,34922.0741000026,312269.72500002,NA,12622.2478998825,NA,307202.106900048,466214.958200231,465669.406100176,454801.135600079,303743.55169991,384562.325499952,260216.109400149,13393.6320999637,56751.876000315,88222.7378999814,106786.371599883,128401.760499924,138302.530700341,384562.467500102,467049.721899908,388489.665200002,279369.69400011,432248.457300011,NA,NA,306760.543399956,465368.869199883,303367.349999957,NA,NA,NA,NA,NA,384555.407499894,152680.495900102,260209.139000159,454801.064400002,303743.47779993,384465.656599961,384393.520799931,465664.09060033,12622.3464999348,466519.225900061,12622.367599979,466207.687000278,152679.715200327,312265.429500025,312230.546100065,13377.5387001224,220443.122100085,NA,146285.624899901,33,160892.382700928,41,0,25,1,26,"Geographie",6,3,3,3,3,3
80.9523809523809,96,3846.70778811865,"l","accuracy","ka1996he","1","b","l","1","0","0",71,3,700,"Wed Apr 12 14:03:07 2023",2,"eher schwer","accuracy","Experiment.osexp","Bild_s2_b_5.png",1080,"he",1996,"ka","orangene","C:/Users/steff/Documents/Universität/Master Psychologie/SS 2022/Masterarbeit/Experiment/subject-13.csv",0,0,0,"a",80,80,"l","l",669.344400055707,669.344400055707,13,NA,468219.331600238,384465.72420001,152680.678199977,312197.159599978,468889.797900338,467911.283799913,34922.0741000026,312269.72500002,NA,12622.2478998825,NA,307202.106900048,467918.749100063,467368.189000059,454801.135600079,303743.55169991,384562.325499952,260216.109400149,13393.6320999637,56751.876000315,88222.7378999814,106786.371599883,128401.760499924,138302.530700341,384562.467500102,468889.868100174,388489.665200002,279369.69400011,432248.457300011,NA,NA,306760.543399956,467067.72219995,303367.349999957,NA,NA,NA,NA,NA,384555.407499894,152680.495900102,260209.139000159,454801.064400002,303743.47779993,384465.656599961,384393.520799931,467362.831800245,12622.3464999348,468219.54460023,12622.367599979,467911.20530013,152679.715200327,312265.429500025,312230.546100065,13377.5387001224,220443.122100085,NA,146285.624899901,34,161561.727100983,42,0,25,1,26,"Geographie",6,3,3,3,3,3
81.3953488372093,96,3794.59336979401,"l","accuracy","ka1996he","1","b","l","1","0","0",72,3,700,"Wed Apr 12 14:03:07 2023",3,"sehr schwer","accuracy","Experiment.osexp","Bild_s1_b_2.png",1080,"he",1996,"ka","orangene","C:/Users/steff/Documents/Universität/Master Psychologie/SS 2022/Masterarbeit/Experiment/subject-13.csv",0,0,0,"a",85,85,"l","l",1605.78780015931,1605.78780015931,13,NA,470098.872500006,384465.72420001,152680.678199977,312197.159599978,471705.71060013,469791.096400004,34922.0741000026,312269.72500002,NA,12622.2478998825,NA,307202.106900048,469798.288700171,469206.836500205,469281.242500059,303743.55169991,384562.325499952,260216.109400149,13393.6320999637,56751.876000315,88222.7378999814,106786.371599883,128401.760499924,138302.530700341,384562.467500102,471705.782100093,388489.665200002,279369.69400011,432248.457300011,NA,NA,306760.543399956,468906.006200239,303367.349999957,NA,NA,NA,NA,NA,384555.407499894,152680.495900102,260209.139000159,469281.17089998,303743.47779993,384465.656599961,384393.520799931,469201.464300044,12622.3464999348,470099.055800121,12622.367599979,469791.01860011,152679.715200327,312265.429500025,312230.546100065,13377.5387001224,220443.122100085,NA,146285.624899901,35,163167.514901143,43,0,25,1,26,"Geographie",6,3,3,3,3,3
81.8181818181818,96,3726.2874750357,"l","accuracy","ka1996he","1","o","a","1","0","0",73,3,700,"Wed Apr 12 14:03:07 2023",3,"sehr schwer","accuracy","Experiment.osexp","Bild_s1_o_16.png",1080,"he",1996,"ka","orangene","C:/Users/steff/Documents/Universität/Master Psychologie/SS 2022/Masterarbeit/Experiment/subject-13.csv",0,0,0,"a",90,90,"a","a",789.134000428021,789.134000428021,13,NA,472883.659200277,384465.72420001,152680.678199977,312197.159599978,473673.882300034,472575.387400109,34922.0741000026,312269.72500002,NA,12622.2478998825,NA,307202.106900048,472582.269600127,472026.800900232,469281.242500059,303743.55169991,384562.325499952,260216.109400149,13393.6320999637,56751.876000315,88222.7378999814,106786.371599883,128401.760499924,138302.530700341,384562.467500102,473673.958800267,388489.665200002,279369.69400011,432248.457300011,NA,NA,306760.543399956,471726.269300096,303367.349999957,NA,NA,NA,NA,NA,384555.407499894,152680.495900102,260209.139000159,469281.17089998,303743.47779993,384465.656599961,384393.520799931,472021.474699955,12622.3464999348,472883.746299893,12622.367599979,472575.311799999,152679.715200327,312265.429500025,312230.546100065,13377.5387001224,220443.122100085,NA,146285.624899901,36,163956.648901571,44,0,25,1,26,"Geographie",6,3,3,3,3,3
82.2222222222222,96,3661.05136225621,"l","accuracy","ka1996he","1","o","a","1","0","0",74,3,700,"Wed Apr 12 14:03:07 2023",3,"sehr schwer","accuracy","Experiment.osexp","Bild_s1_o_12.png",1080,"he",1996,"ka","orangene","C:/Users/steff/Documents/Universität/Master Psychologie/SS 2022/Masterarbeit/Experiment/subject-13.csv",0,0,0,"a",95,95,"a","a",790.662399958819,790.662399958819,13,NA,474849.697799888,384465.72420001,152680.678199977,312197.159599978,475643.279800192,474541.942600161,34922.0741000026,312269.72500002,NA,12622.2478998825,NA,307202.106900048,474549.185500015,474004.076400306,469281.242500059,303743.55169991,384562.325499952,260216.109400149,13393.6320999637,56751.876000315,88222.7378999814,106786.371599883,128401.760499924,138302.530700341,384562.467500102,475643.350299913,388489.665200002,279369.69400011,432248.457300011,NA,NA,306760.543399956,473703.5552999,303367.349999957,NA,NA,NA,NA,NA,384555.407499894,152680.495900102,260209.139000159,469281.17089998,303743.47779993,384465.656599961,384393.520799931,473998.744000215,12622.3464999348,474849.80260022,12622.367599979,474541.807200294,152679.715200327,312265.429500025,312230.546100065,13377.5387001224,220443.122100085,NA,146285.624899901,37,164747.311301529,45,0,25,1,26,"Geographie",6,3,3,3,3,3
80.4347826086957,96,3594.92600437902,"l","accuracy","ka1996he","0","b","l","0","0","0",75,3,700,"Wed Apr 12 14:03:07 2023",3,"sehr schwer","accuracy","Experiment.osexp","Bild_s1_b_19.png",1080,"he",1996,"ka","orangene","C:/Users/steff/Documents/Universität/Master Psychologie/SS 2022/Masterarbeit/Experiment/subject-13.csv",1,0,0,"a",85,85,"a","a",619.284899905324,619.284899905324,13,NA,476813.496700022,384465.72420001,152680.678199977,312197.159599978,477433.690099977,476504.866400268,34922.0741000026,312269.72500002,NA,12622.2478998825,NA,307202.106900048,476511.82990009,475955.528399907,469281.242500059,303743.55169991,384562.325499952,260216.109400149,13393.6320999637,56751.876000315,88222.7378999814,106786.371599883,128401.760499924,138302.530700341,384562.467500102,477433.761999942,388489.665200002,279369.69400011,432248.457300011,NA,NA,306760.543399956,475654.816800263,303367.349999957,NA,NA,NA,NA,NA,384555.407499894,152680.495900102,260209.139000159,469281.17089998,303743.47779993,384465.656599961,384393.520799931,475950.151999947,12622.3464999348,476813.583900221,12622.367599979,476504.788100254,152679.715200327,312265.429500025,312230.546100065,13377.5387001224,220443.122100085,NA,146285.624899901,37,165366.596201435,46,0,25,1,26,"Geographie",6,3,3,3,3,3
80.8510638297872,96,3549.75698300776,"l","accuracy","ka1996he","1","o","a","1","0","0",76,3,700,"Wed Apr 12 14:03:07 2023",3,"sehr schwer","accuracy","Experiment.osexp","Bild_s1_o_23.png",1080,"he",1996,"ka","orangene","C:/Users/steff/Documents/Universität/Master Psychologie/SS 2022/Masterarbeit/Experiment/subject-13.csv",0,0,0,"a",90,90,"a","a",1471.98199992999,1471.98199992999,13,NA,478616.811400279,384465.72420001,152680.678199977,312197.159599978,480089.676100295,478308.711200021,34922.0741000026,312269.72500002,NA,12622.2478998825,NA,307202.106900048,478315.665800124,477754.137000069,469281.242500059,303743.55169991,384562.325499952,260216.109400149,13393.6320999637,56751.876000315,88222.7378999814,106786.371599883,128401.760499924,138302.530700341,384562.467500102,480089.747699909,388489.665200002,279369.69400011,477452.524899971,NA,NA,306760.543399956,475654.816800263,303367.349999957,NA,NA,NA,NA,NA,384555.407499894,152680.495900102,260209.139000159,469281.17089998,303743.47779993,384465.656599961,384393.520799931,477747.480399907,12622.3464999348,478616.901600268,12622.367599979,478308.63030022,152679.715200327,312265.429500025,312230.546100065,13377.5387001224,220443.122100085,NA,146285.624899901,38,166838.578201365,47,0,25,1,26,"Geographie",6,3,3,3,3,3
81.25,96,3501.79541668816,"l","accuracy","ka1996he","1","o","a","1","0","0",77,3,700,"Wed Apr 12 14:03:07 2023",3,"sehr schwer","accuracy","Experiment.osexp","Bild_s1_o_13.png",1080,"he",1996,"ka","orangene","C:/Users/steff/Documents/Universität/Master Psychologie/SS 2022/Masterarbeit/Experiment/subject-13.csv",0,0,0,"a",95,95,"a","a",1247.60179966688,1247.60179966688,13,NA,481289.189999923,384465.72420001,152680.678199977,312197.159599978,482537.737899926,480981.288299896,34922.0741000026,312269.72500002,NA,12622.2478998825,NA,307202.106900048,480988.158999942,480418.735899962,469281.242500059,303743.55169991,384562.325499952,260216.109400149,13393.6320999637,56751.876000315,88222.7378999814,106786.371599883,128401.760499924,138302.530700341,384562.467500102,482537.808699999,388489.665200002,279369.69400011,477452.524899971,NA,NA,306760.543399956,480118.413500022,303367.349999957,NA,NA,NA,NA,NA,384555.407499894,152680.495900102,260209.139000159,469281.17089998,303743.47779993,384465.656599961,384393.520799931,480413.417200092,12622.3464999348,481289.279300254,12622.367599979,480981.204600073,152679.715200327,312265.429500025,312230.546100065,13377.5387001224,220443.122100085,NA,146285.624899901,39,168086.180001032,48,0,25,1,26,"Geographie",6,3,3,3,3,3
81.6326530612245,96,3448.12892859193,"l","accuracy","ka1996he","1","o","a","1","0","0",78,3,700,"Wed Apr 12 14:03:07 2023",3,"sehr schwer","accuracy","Experiment.osexp","Bild_s1_o_22.png",1080,"he",1996,"ka","orangene","C:/Users/steff/Documents/Universität/Master Psychologie/SS 2022/Masterarbeit/Experiment/subject-13.csv",0,0,0,"a",100,100,"a","a",872.137499973178,872.137499973178,13,NA,483744.643399958,384465.72420001,152680.678199977,312197.159599978,484617.66450014,483436.610000208,34922.0741000026,312269.72500002,NA,12622.2478998825,NA,307202.106900048,483443.49440001,482858.507200144,469281.242500059,303743.55169991,384562.325499952,260216.109400149,13393.6320999637,56751.876000315,88222.7378999814,106786.371599883,128401.760499924,138302.530700341,384562.467500102,484617.735499982,388489.665200002,279369.69400011,477452.524899971,NA,NA,306760.543399956,482557.659999933,303367.349999957,NA,NA,NA,NA,NA,384555.407499894,152680.495900102,260209.139000159,469281.17089998,303743.47779993,384465.656599961,384393.520799931,482853.152300231,12622.3464999348,483744.730799925,12622.367599979,483436.534000095,152679.715200327,312265.429500025,312230.546100065,13377.5387001224,220443.122100085,NA,146285.624899901,40,168958.317501005,49,0,25,1,26,"Geographie",6,3,3,3,3,3
82,96,3392.09003201686,"l","accuracy","ka1996he","1","o","a","1","0","0",79,3,700,"Wed Apr 12 14:03:07 2023",3,"sehr schwer","accuracy","Experiment.osexp","Bild_s1_o_20.png",1080,"he",1996,"ka","orangene","C:/Users/steff/Documents/Universität/Master Psychologie/SS 2022/Masterarbeit/Experiment/subject-13.csv",0,0,0,"a",105,105,"a","a",646.184099838138,646.184099838138,13,NA,485791.62620008,384465.72420001,152680.678199977,312197.159599978,486441.832500044,485483.806500211,34922.0741000026,312269.72500002,NA,12622.2478998825,NA,307202.106900048,485490.875500254,484934.453700203,469281.242500059,303743.55169991,384562.325499952,260216.109400149,13393.6320999637,56751.876000315,88222.7378999814,106786.371599883,128401.760499924,138302.530700341,384562.467500102,486441.902100109,388489.665200002,279369.69400011,477452.524899971,NA,NA,306760.543399956,484634.263100103,303367.349999957,NA,NA,NA,NA,NA,384555.407499894,152680.495900102,260209.139000159,469281.17089998,303743.47779993,384465.656599961,384393.520799931,484929.078500252,12622.3464999348,485794.651400298,12622.367599979,485483.730700333,152679.715200327,312265.429500025,312230.546100065,13377.5387001224,220443.122100085,NA,146285.624899901,41,169604.501600843,50,0,25,1,26,"Geographie",6,3,3,3,3,3
50,96,3282.09244972095,"l","speed","ka1996he","0","b","l","0","0","0",80,4,700,"Wed Apr 12 14:03:07 2023",3,"sehr schwer","accuracy","Experiment.osexp","Bild_s1_b_8.png",1080,"he",1996,"ka","orangene","C:/Users/steff/Documents/Universität/Master Psychologie/SS 2022/Masterarbeit/Experiment/subject-13.csv",0,0,1,"a",95,-10,"a","a",843.30299962312,843.30299962312,13,NA,498541.40560003,384465.72420001,152680.678199977,491900.461799931,499385.368200019,498233.485199977,34922.0741000026,312269.72500002,NA,12622.2478998825,486905.559400097,307202.106900048,498240.669399965,486766.33829996,497738.184300251,303743.55169991,492015.826300252,260216.109400149,13393.6320999637,56751.876000315,88222.7378999814,106786.371599883,128401.760499924,138302.530700341,492015.977600124,499385.460699908,497737.353899982,279369.69400011,477452.524899971,NA,NA,306760.543399956,486458.080600016,303367.349999957,NA,NA,NA,NA,NA,492009.360800032,152680.495900102,260209.139000159,497738.143099938,303743.47779993,384465.656599961,384393.520799931,486760.815000162,12622.3464999348,498541.545700282,12622.367599979,498233.303300105,152679.715200327,312265.429500025,312230.546100065,13377.5387001224,220443.122100085,NA,146285.624899901,1,6564.1848994419,2,0,130,1,26,"Geographie",6,3,3,3,3,3
