"accuracy","anzahl_gruppen","avg_rt","blauetaste","block","code","correct","correct_colour","correct_response","correct1","correct2","correct3","count_bildstimulus_3_1","count_block","cutoff","datetime","difficulty","difficulty_f","erstebedingung","experiment_file","filename","height","id_geburtsort","id_jahr","id_vater","linketaste","logfile","loose1","loose2","loose3","orangenetaste","punkte1","punkteimblock","response","response_tasteresponse_3_1","response_time","response_time_tasteresponse_3_1","subject_nr","time_bildershuffle","time_bildstimulus_3_1","time_block","time_block_tut","time_blockwerte_zuruecksetzten","time_cutoff_werte_und_punkte_3_1","time_definecorrectcolour_3_1","time_eingabemaske_kuerzel_python","time_ende_tutorial_1","time_ende_experimentierungsphase","time_experiment","time_feedback_serie","time_feedback_tutorial","time_fixationcross_3_1","time_grauesbild_3_1","time_gruppe_block","time_gruppe_tutorial","time_instruktionen_block","time_instruktionen_tutorial_1","time_introduction_1","time_introduction_2_1","time_introduction_3_punkte","time_introduction_3_speed","time_introduction_4_accuracy","time_introduction_5_feedback","time_leertaste_fuer_naechsten_bildschirm","time_logger_3_1","time_loop_block","time_loop_block_tut","time_minifeedbacknegativ_acc","time_minifeedbacknegativ_speed_slow","time_minifeedbacknegativ_speed_slowandwrong","time_minifeedbacknegativ_speed_wrong","time_minifeedbackpositiv_acc","time_minifeedbackpositiv_speed","time_new_inline_script","time_pause_zwischen_serie_1","time_pause_zwischen_serie_2","time_reset_feedback","time_reset_feedback_1","time_sequenz_block","time_sequenz_block_tut","time_sequenz_block_tut_1","time_sequenz_gruppe","time_sequenz_gruppe_tut","time_sequenz_serie","time_serie","time_set_to_zero","time_start","time_tasteresponse_3_1","time_testloopprepareglitchtutorial","time_trial_3_1","time_tutorial","time_tutorial_ende","time_tutorial_wiederholungscheck","time_vorgeplaenkel","time_warnhinweis_3sek","time_warnhinweis_5sek","time_warnung_tutorial_1","total_correct","total_response_time","total_responses","tutorial","tutorialpunkte","geschlecht","alter","studiengang","bildungsabschluss","haendig1","haendig2","haendig3","haendig4","haendig_mean"
88.8888888888889,96,71204.226700007,"l","accuracy","bi1999ma","0","b","l","0","0","0",0,1,700,"Tue Mar 28 15:49:30 2023",3,"sehr schwer","accuracy","Experiment.osexp","Bild_s1_b_14.png",1080,"ma",1999,"bi","orangene","C:/Users/steff/Documents/Universität/Master Psychologie/SS 2022/Masterarbeit/Experiment/subject-9.csv",1,0,0,"a",-10,-10,"a","a",1074.16220009327,1074.16220009327,9,NA,186073.97300005,NA,176518.070599996,NA,187149.104099954,185765.974899987,19373.573299963,NA,NA,4747.05210002139,NA,NA,185773.306100047,NA,NA,185245.903200004,NA,176610.076199984,5514.27010004409,37014.8749999935,62833.9807000011,79525.2266000025,105364.517600043,109888.620999991,176610.184699995,187149.176900042,NA,185244.949099957,NA,NA,NA,NA,NA,NA,NA,NA,NA,NA,NA,NA,176517.892000033,176602.950699977,NA,185245.858400012,NA,NA,NA,4748.06440004613,186074.067799957,4748.09480004478,185765.778200002,176517.094800016,NA,NA,5497.18509998638,NA,NA,116416.592700058,8,640838.040300063,9,1,0,1,23,"Humanmedizin",5,3,3,3,3,3
80,96,64145.4080900061,"l","accuracy","bi1999ma","0","o","a","0","0","0",1,1,700,"Tue Mar 28 15:49:30 2023",3,"sehr schwer","accuracy","Experiment.osexp","Bild_s1_o_15.png",1080,"ma",1999,"bi","orangene","C:/Users/steff/Documents/Universität/Master Psychologie/SS 2022/Masterarbeit/Experiment/subject-9.csv",1,0,0,"a",-20,-20,"l","l",616.040599998087,616.040599998087,9,NA,188323.987400043,NA,176518.070599996,NA,188940.968999988,188015.916200005,19373.573299963,NA,NA,4747.05210002139,NA,NA,188023.14049995,187483.768000035,NA,185245.903200004,NA,176610.076199984,5514.27010004409,37014.8749999935,62833.9807000011,79525.2266000025,105364.517600043,109888.620999991,176610.184699995,188941.038600053,NA,185244.949099957,187182.76440003,NA,NA,NA,NA,NA,NA,NA,NA,NA,NA,NA,176517.892000033,176602.950699977,NA,185245.858400012,NA,NA,187478.340400034,4748.06440004613,188324.165600003,4748.09480004478,188015.838599997,176517.094800016,NA,NA,5497.18509998638,NA,NA,116416.592700058,8,641454.080900061,10,1,0,1,23,"Humanmedizin",5,3,3,3,3,3
81.8181818181818,96,58417.8992727327,"l","accuracy","bi1999ma","1","b","l","1","0","0",2,1,700,"Tue Mar 28 15:49:30 2023",2,"eher schwer","accuracy","Experiment.osexp","Bild_s2_b_1.png",1080,"ma",1999,"bi","orangene","C:/Users/steff/Documents/Universität/Master Psychologie/SS 2022/Masterarbeit/Experiment/subject-9.csv",0,0,0,"a",-15,-15,"l","l",1142.81109999865,1142.81109999865,9,NA,190133.696699981,NA,176518.070599996,NA,191277.284099953,189825.458899955,19373.573299963,NA,NA,4747.05210002139,NA,NA,189832.481799996,189253.058500006,NA,189324.473000015,NA,176610.076199984,5514.27010004409,37014.8749999935,62833.9807000011,79525.2266000025,105364.517600043,109888.620999991,176610.184699995,191277.354800026,NA,185244.949099957,188952.305600047,NA,NA,NA,NA,NA,NA,NA,NA,NA,NA,NA,176517.892000033,176602.950699977,NA,189324.400100042,NA,NA,189247.735499986,4748.06440004613,190133.786899969,4748.09480004478,189825.377700035,176517.094800016,NA,NA,5497.18509998638,NA,NA,116416.592700058,9,642596.89200006,11,1,0,1,23,"Humanmedizin",5,3,3,3,3,3
75,96,53601.3768250026,"l","accuracy","bi1999ma","0","b","l","0","0","0",3,1,700,"Tue Mar 28 15:49:30 2023",2,"eher schwer","accuracy","Experiment.osexp","Bild_s2_b_11.png",1080,"ma",1999,"bi","orangene","C:/Users/steff/Documents/Universität/Master Psychologie/SS 2022/Masterarbeit/Experiment/subject-9.csv",1,0,0,"a",-25,-25,"a","a",619.629899971187,619.629899971187,9,NA,192432.400400052,NA,176518.070599996,NA,193052.863399964,192124.450200005,19373.573299963,NA,NA,4747.05210002139,NA,NA,192131.751299952,191594.569099951,NA,189324.473000015,NA,176610.076199984,5514.27010004409,37014.8749999935,62833.9807000011,79525.2266000025,105364.517600043,109888.620999991,176610.184699995,193052.932300023,NA,185244.949099957,188952.305600047,NA,NA,NA,191293.937499984,NA,NA,NA,NA,NA,NA,NA,176517.892000033,176602.950699977,NA,189324.400100042,NA,NA,191589.168200037,4748.06440004613,192432.605699985,4748.09480004478,192124.372099992,176517.094800016,NA,NA,5497.18509998638,NA,NA,116416.592700058,9,643216.521900031,12,1,0,1,23,"Humanmedizin",5,3,3,3,3,3
76.9230769230769,96,49546.000192309,"l","accuracy","bi1999ma","1","o","a","1","0","0",4,1,700,"Tue Mar 28 15:49:30 2023",1,"eher leicht","accuracy","Experiment.osexp","Bild_s3_o_25.png",1080,"ma",1999,"bi","orangene","C:/Users/steff/Documents/Universität/Master Psychologie/SS 2022/Masterarbeit/Experiment/subject-9.csv",0,0,0,"a",-20,-20,"a","a",881.480599986389,881.480599986389,9,NA,194250.676300027,NA,176518.070599996,NA,195133.200600045,193943.538299995,19373.573299963,NA,NA,4747.05210002139,NA,NA,193950.435000006,193380.473600002,NA,193459.032400046,NA,176610.076199984,5514.27010004409,37014.8749999935,62833.9807000011,79525.2266000025,105364.517600043,109888.620999991,176610.184699995,195133.270499995,NA,185244.949099957,193079.651399981,NA,NA,NA,191293.937499984,NA,NA,NA,NA,NA,NA,NA,176517.892000033,176602.950699977,NA,193458.954900037,NA,NA,193374.948699959,4748.06440004613,194250.763699994,4748.09480004478,193943.462800002,176517.094800016,NA,NA,5497.18509998638,NA,NA,116416.592700058,10,644098.002500017,13,1,0,1,23,"Humanmedizin",5,3,3,3,3,3
78.5714285714286,96,46045.1184714329,"l","accuracy","bi1999ma","1","b","l","1","0","0",5,1,700,"Tue Mar 28 15:49:30 2023",1,"eher leicht","accuracy","Experiment.osexp","Bild_s3_b_18.png",1080,"ma",1999,"bi","orangene","C:/Users/steff/Documents/Universität/Master Psychologie/SS 2022/Masterarbeit/Experiment/subject-9.csv",0,0,0,"a",-15,-15,"l","l",533.656100044027,533.656100044027,9,NA,196310.495599988,NA,176518.070599996,NA,196844.78299995,196002.588800038,19373.573299963,NA,NA,4747.05210002139,NA,NA,196009.523999994,195466.917500016,NA,193459.032400046,NA,176610.076199984,5514.27010004409,37014.8749999935,62833.9807000011,79525.2266000025,105364.517600043,109888.620999991,176610.184699995,196844.854200026,NA,185244.949099957,193079.651399981,NA,NA,NA,195166.22959997,NA,NA,NA,NA,NA,NA,NA,176517.892000033,176602.950699977,NA,193458.954900037,NA,NA,195461.58959996,4748.06440004613,196310.587499989,4748.09480004478,196002.509800019,176517.094800016,NA,NA,5497.18509998638,NA,NA,116416.592700058,11,644631.658600061,14,1,0,1,23,"Humanmedizin",5,3,3,3,3,3
80,96,43024.2622800094,"l","accuracy","bi1999ma","1","b","l","1","0","0",6,1,700,"Tue Mar 28 15:49:30 2023",0,"sehr leicht","accuracy","Experiment.osexp","Bild_s4_b_5.png",1080,"ma",1999,"bi","orangene","C:/Users/steff/Documents/Universität/Master Psychologie/SS 2022/Masterarbeit/Experiment/subject-9.csv",0,0,0,"a",-10,-10,"l","l",732.275600079447,732.275600079447,9,NA,198095.767999999,NA,176518.070599996,NA,198828.823699965,197786.429999978,19373.573299963,NA,NA,4747.05210002139,NA,NA,197793.984799995,197174.304899992,NA,197246.728500002,NA,176610.076199984,5514.27010004409,37014.8749999935,62833.9807000011,79525.2266000025,105364.517600043,109888.620999991,176610.184699995,198828.895100043,NA,185244.949099957,193079.651399981,NA,NA,NA,196873.768400052,NA,NA,NA,NA,NA,NA,NA,176517.892000033,176602.950699977,NA,197246.655800031,NA,NA,197168.9243,4748.06440004613,198095.962999971,4748.09480004478,197786.344300024,176517.094800016,NA,NA,5497.18509998638,NA,NA,116416.592700058,12,645363.934200141,15,1,0,1,23,"Humanmedizin",5,3,3,3,3,3
81.25,96,40364.0847625138,"l","accuracy","bi1999ma","1","o","a","1","0","0",7,1,700,"Tue Mar 28 15:49:30 2023",0,"sehr leicht","accuracy","Experiment.osexp","Bild_s4_o_2.png",1080,"ma",1999,"bi","orangene","C:/Users/steff/Documents/Universität/Master Psychologie/SS 2022/Masterarbeit/Experiment/subject-9.csv",0,0,0,"a",-5,-5,"a","a",461.422000080347,461.422000080347,9,NA,199982.565199956,NA,176518.070599996,NA,200444.834099966,199673.327600001,19373.573299963,NA,NA,4747.05210002139,NA,NA,199680.538599961,199144.692500005,NA,197246.728500002,NA,176610.076199984,5514.27010004409,37014.8749999935,62833.9807000011,79525.2266000025,105364.517600043,109888.620999991,176610.184699995,200444.902800024,NA,185244.949099957,193079.651399981,NA,NA,NA,198844.335300033,NA,NA,NA,NA,NA,NA,NA,176517.892000033,176602.950699977,NA,197246.655800031,NA,NA,199139.42859997,4748.06440004613,199982.809399953,4748.09480004478,199673.245899961,176517.094800016,NA,NA,5497.18509998638,NA,NA,116416.592700058,13,645825.356200221,16,1,0,1,23,"Humanmedizin",5,3,3,3,3,3
82.3529411764706,96,38029.9914764884,"l","accuracy","bi1999ma","1","b","l","1","0","0",8,1,700,"Tue Mar 28 15:49:30 2023",0,"sehr leicht","accuracy","Experiment.osexp","Bild_s4_b_3.png",1080,"ma",1999,"bi","orangene","C:/Users/steff/Documents/Universität/Master Psychologie/SS 2022/Masterarbeit/Experiment/subject-9.csv",0,0,0,"a",0,0,"l","l",684.498900081962,684.498900081962,9,NA,201631.522299955,NA,176518.070599996,NA,202316.643500002,201322.72289996,19373.573299963,NA,NA,4747.05210002139,NA,NA,201329.905800056,200760.838499991,NA,200831.261700019,NA,176610.076199984,5514.27010004409,37014.8749999935,62833.9807000011,79525.2266000025,105364.517600043,109888.620999991,176610.184699995,202316.711600055,NA,185244.949099957,193079.651399981,NA,NA,NA,200460.508199991,NA,NA,NA,NA,NA,NA,NA,176517.892000033,176602.950699977,NA,200831.189200049,NA,NA,200755.486199982,4748.06440004613,201631.689999951,4748.09480004478,201322.644499945,176517.094800016,NA,NA,5497.18509998638,NA,NA,116416.592700058,14,646509.855100303,17,1,0,1,23,"Humanmedizin",5,3,3,3,3,3
77.7777777777778,96,35944.6568666867,"l","accuracy","bi1999ma","0","b","l","0","0","0",9,1,700,"Tue Mar 28 15:49:30 2023",0,"sehr leicht","accuracy","Experiment.osexp","Bild_s4_b_21.png",1080,"ma",1999,"bi","orangene","C:/Users/steff/Documents/Universität/Master Psychologie/SS 2022/Masterarbeit/Experiment/subject-9.csv",1,0,0,"a",-10,-10,"a","a",493.968500057235,493.968500057235,9,NA,203486.171300057,NA,176518.070599996,NA,203980.673199985,203178.472299944,19373.573299963,NA,NA,4747.05210002139,NA,NA,203185.565600055,202649.534499971,NA,200831.261700019,NA,176610.076199984,5514.27010004409,37014.8749999935,62833.9807000011,79525.2266000025,105364.517600043,109888.620999991,176610.184699995,203980.744399945,NA,185244.949099957,193079.651399981,NA,NA,NA,202349.055800005,NA,NA,NA,NA,NA,NA,NA,176517.892000033,176602.950699977,NA,200831.189200049,NA,NA,202644.228599966,4748.06440004613,203486.253899988,4748.09480004478,203178.394300048,176517.094800016,NA,NA,5497.18509998638,NA,NA,116416.592700058,14,647003.82360036,18,1,0,1,23,"Humanmedizin",5,3,3,3,3,3
78.9473684210526,96,34091.3850052809,"l","accuracy","bi1999ma","1","o","a","1","0","0",10,1,700,"Tue Mar 28 15:49:30 2023",1,"eher leicht","accuracy","Experiment.osexp","Bild_s3_o_3.png",1080,"ma",1999,"bi","orangene","C:/Users/steff/Documents/Universität/Master Psychologie/SS 2022/Masterarbeit/Experiment/subject-9.csv",0,0,0,"a",-5,-5,"a","a",732.491499977186,732.491499977186,9,NA,205167.564600008,NA,176518.070599996,NA,205900.855400017,204859.910800005,19373.573299963,NA,NA,4747.05210002139,NA,NA,204866.996400058,204297.831199947,NA,204368.016700028,NA,176610.076199984,5514.27010004409,37014.8749999935,62833.9807000011,79525.2266000025,105364.517600043,109888.620999991,176610.184699995,205900.925699971,NA,185244.949099957,203997.40750005,NA,NA,NA,202349.055800005,NA,NA,NA,NA,NA,NA,NA,176517.892000033,176602.950699977,NA,204367.945199949,NA,NA,204292.47580003,4748.06440004613,205167.737500044,4748.09480004478,204859.833299997,176517.094800016,NA,NA,5497.18509998638,NA,NA,116416.592700058,15,647736.315100337,19,1,0,1,23,"Humanmedizin",5,3,3,3,3,3
80,96,32422.8357550164,"l","accuracy","bi1999ma","1","o","a","1","0","0",11,1,700,"Tue Mar 28 15:49:30 2023",1,"eher leicht","accuracy","Experiment.osexp","Bild_s3_o_19.png",1080,"ma",1999,"bi","orangene","C:/Users/steff/Documents/Universität/Master Psychologie/SS 2022/Masterarbeit/Experiment/subject-9.csv",0,0,0,"a",0,0,"a","a",720.399999991059,720.399999991059,9,NA,207083.644400002,NA,176518.070599996,NA,207804.865299957,206775.799200055,19373.573299963,NA,NA,4747.05210002139,NA,NA,206783.126299968,206250.186400022,NA,204368.016700028,NA,176610.076199984,5514.27010004409,37014.8749999935,62833.9807000011,79525.2266000025,105364.517600043,109888.620999991,176610.184699995,207804.936400033,NA,185244.949099957,203997.40750005,NA,NA,NA,205949.634999968,NA,NA,NA,NA,NA,NA,NA,176517.892000033,176602.950699977,NA,204367.945199949,NA,NA,206244.89880004,4748.06440004613,207083.825199981,4748.09480004478,206775.656800019,176517.094800016,NA,NA,5497.18509998638,NA,NA,116416.592700058,16,648456.715100328,20,1,0,1,23,"Humanmedizin",5,3,3,3,3,3
80.9523809523809,96,30913.720133354,"l","accuracy","bi1999ma","1","o","a","1","0","0",12,1,700,"Tue Mar 28 15:49:30 2023",2,"eher schwer","accuracy","Experiment.osexp","Bild_s2_o_8.png",1080,"ma",1999,"bi","orangene","C:/Users/steff/Documents/Universität/Master Psychologie/SS 2022/Masterarbeit/Experiment/subject-9.csv",0,0,0,"a",5,5,"a","a",731.407700106502,731.407700106502,9,NA,209008.727799985,NA,176518.070599996,NA,209740.851599956,208700.759000028,19373.573299963,NA,NA,4747.05210002139,NA,NA,208708.074299968,208134.966599988,NA,208204.960500007,NA,176610.076199984,5514.27010004409,37014.8749999935,62833.9807000011,79525.2266000025,105364.517600043,109888.620999991,176610.184699995,209740.922300029,NA,185244.949099957,203997.40750005,NA,NA,NA,207834.510099958,NA,NA,NA,NA,NA,NA,NA,176517.892000033,176602.950699977,NA,208204.887300031,NA,NA,208129.638600047,4748.06440004613,209008.814699948,4748.09480004478,208700.675999979,176517.094800016,NA,NA,5497.18509998638,NA,NA,116416.592700058,17,649188.122800435,21,1,0,1,23,"Humanmedizin",5,3,3,3,3,3
81.8181818181818,96,29535.7900954762,"l","accuracy","bi1999ma","1","o","a","1","0","0",13,1,700,"Tue Mar 28 15:49:30 2023",2,"eher schwer","accuracy","Experiment.osexp","Bild_s2_o_4.png",1080,"ma",1999,"bi","orangene","C:/Users/steff/Documents/Universität/Master Psychologie/SS 2022/Masterarbeit/Experiment/subject-9.csv",0,0,0,"a",10,10,"a","a",599.259300041012,599.259300041012,9,NA,210900.864699972,NA,176518.070599996,NA,211500.935500022,210592.93569997,19373.573299963,NA,NA,4747.05210002139,NA,NA,210599.841600051,210058.260399965,NA,208204.960500007,NA,176610.076199984,5514.27010004409,37014.8749999935,62833.9807000011,79525.2266000025,105364.517600043,109888.620999991,176610.184699995,211501.00769999,NA,185244.949099957,203997.40750005,NA,NA,NA,209757.161300047,NA,NA,NA,NA,NA,NA,NA,176517.892000033,176602.950699977,NA,208204.887300031,NA,NA,210052.9293,4748.06440004613,210900.953799952,4748.09480004478,210592.856899952,176517.094800016,NA,NA,5497.18509998638,NA,NA,116416.592700058,18,649787.382100476,22,1,0,1,23,"Humanmedizin",5,3,3,3,3,3
82.6086956521739,96,28280.7115043726,"l","accuracy","bi1999ma","1","o","a","1","0","0",14,1,700,"Tue Mar 28 15:49:30 2023",3,"sehr schwer","accuracy","Experiment.osexp","Bild_s1_o_24.png",1080,"ma",1999,"bi","orangene","C:/Users/steff/Documents/Universität/Master Psychologie/SS 2022/Masterarbeit/Experiment/subject-9.csv",0,0,0,"a",15,15,"a","a",668.982500093989,668.982500093989,9,NA,212687.206199975,NA,176518.070599996,NA,213356.756499968,212379.196500056,19373.573299963,NA,NA,4747.05210002139,NA,NA,212386.128099984,211817.521400051,NA,211886.900700047,NA,176610.076199984,5514.27010004409,37014.8749999935,62833.9807000011,79525.2266000025,105364.517600043,109888.620999991,176610.184699995,213356.824600021,NA,185244.949099957,203997.40750005,NA,NA,NA,211516.862599994,NA,NA,NA,NA,NA,NA,NA,176517.892000033,176602.950699977,NA,211886.829199968,NA,NA,211812.209800002,4748.06440004613,212687.293899944,4748.09480004478,212379.115200019,176517.094800016,NA,NA,5497.18509998638,NA,NA,116416.592700058,19,650456.36460057,23,1,0,1,23,"Humanmedizin",5,3,3,3,3,3
83.3333333333333,96,27121.777512526,"l","accuracy","bi1999ma","1","o","a","1","0","0",15,1,700,"Tue Mar 28 15:49:30 2023",3,"sehr schwer","accuracy","Experiment.osexp","Bild_s1_o_9.png",1080,"ma",1999,"bi","orangene","C:/Users/steff/Documents/Universität/Master Psychologie/SS 2022/Masterarbeit/Experiment/subject-9.csv",0,0,0,"a",20,20,"a","a",466.295700054616,466.295700054616,9,NA,214521.835600026,NA,176518.070599996,NA,214988.962600008,214213.882299955,19373.573299963,NA,NA,4747.05210002139,NA,NA,214220.798800001,213685.483100009,NA,211886.900700047,NA,176610.076199984,5514.27010004409,37014.8749999935,62833.9807000011,79525.2266000025,105364.517600043,109888.620999991,176610.184699995,214989.031799952,NA,185244.949099957,203997.40750005,NA,NA,NA,213384.842499974,NA,NA,NA,NA,NA,NA,NA,176517.892000033,176602.950699977,NA,211886.829199968,NA,NA,213680.167600047,4748.06440004613,214521.922499989,4748.09480004478,214213.804299943,176517.094800016,NA,NA,5497.18509998638,NA,NA,116416.592700058,20,650922.660300625,24,1,0,1,23,"Humanmedizin",5,3,3,3,3,3
100,96,25716.8029000168,"l","speed","bi1999ma","1","o","a","0","1","0",16,2,700,"Tue Mar 28 15:49:30 2023",3,"sehr schwer","accuracy","Experiment.osexp","Bild_s1_o_6.png",1080,"ma",1999,"bi","orangene","C:/Users/steff/Documents/Universität/Master Psychologie/SS 2022/Masterarbeit/Experiment/subject-9.csv",0,0,0,"a",25,5,"a","a",415.352700045332,415.352700045332,9,NA,272412.647700054,NA,176518.070599996,220440.772700007,272828.584000003,272104.808500037,19373.573299963,NA,NA,4747.05210002139,NA,215446.434600046,272112.024600036,215304.719000007,NA,271581.92310005,NA,220561.783100013,5514.27010004409,37014.8749999935,62833.9807000011,79525.2266000025,105364.517600043,109888.620999991,220561.942100059,272828.657599981,NA,271580.921899993,203997.40750005,NA,NA,NA,215004.032699973,NA,NA,NA,NA,NA,NA,NA,176517.892000033,220554.81640005,NA,271581.875500036,NA,NA,215299.491400016,4748.06440004613,272412.804499967,4748.09480004478,272104.606700013,176517.094800016,NA,NA,5497.18509998638,NA,NA,116416.592700058,2,51433.6058000335,2,1,20,1,23,"Humanmedizin",5,3,3,3,3,3
100,96,17283.6945333596,"l","speed","bi1999ma","1","o","a","0","1","0",17,2,700,"Tue Mar 28 15:49:30 2023",3,"sehr schwer","accuracy","Experiment.osexp","Bild_s1_o_24.png",1080,"ma",1999,"bi","orangene","C:/Users/steff/Documents/Universität/Master Psychologie/SS 2022/Masterarbeit/Experiment/subject-9.csv",0,0,0,"a",30,10,"a","a",417.477800045162,417.477800045162,9,NA,273994.498400018,NA,176518.070599996,220440.772700007,274412.743199966,273686.620900058,19373.573299963,NA,NA,4747.05210002139,NA,215446.434600046,273693.822699948,273159.042399959,NA,271581.92310005,NA,220561.783100013,5514.27010004409,37014.8749999935,62833.9807000011,79525.2266000025,105364.517600043,109888.620999991,220561.942100059,274412.817699951,NA,271580.921899993,203997.40750005,NA,NA,NA,215004.032699973,272858.193199965,NA,NA,NA,NA,NA,NA,176517.892000033,220554.81640005,NA,271581.875500036,NA,NA,273153.521899949,4748.06440004613,273994.678999996,4748.09480004478,273686.542500043,176517.094800016,NA,NA,5497.18509998638,NA,NA,116416.592700058,3,51851.0836000787,3,1,20,1,23,"Humanmedizin",5,3,3,3,3,3
75,96,13065.681600041,"l","speed","bi1999ma","0","b","l","0","0","0",18,2,700,"Tue Mar 28 15:49:30 2023",2,"eher schwer","accuracy","Experiment.osexp","Bild_s2_b_24.png",1080,"ma",1999,"bi","orangene","C:/Users/steff/Documents/Universität/Master Psychologie/SS 2022/Masterarbeit/Experiment/subject-9.csv",0,1,0,"a",20,0,"a","a",411.642800085247,411.642800085247,9,NA,275616.256000008,NA,176518.070599996,220440.772700007,276028.743100003,275308.234199998,19373.573299963,NA,NA,4747.05210002139,NA,215446.434600046,275315.544200013,274742.202399997,NA,274813.514400041,NA,220561.783100013,5514.27010004409,37014.8749999935,62833.9807000011,79525.2266000025,105364.517600043,109888.620999991,220561.942100059,276028.833899996,NA,271580.921899993,203997.40750005,NA,NA,NA,215004.032699973,274441.135799978,NA,NA,NA,NA,NA,NA,176517.892000033,220554.81640005,NA,274813.437500037,NA,NA,274736.831699964,4748.06440004613,275616.479299963,4748.09480004478,275308.152099955,176517.094800016,NA,NA,5497.18509998638,NA,NA,116416.592700058,3,52262.7264001639,4,1,20,1,23,"Humanmedizin",5,3,3,3,3,3
80,96,10565.3763400391,"l","speed","bi1999ma","1","o","a","0","1","0",19,2,700,"Tue Mar 28 15:49:30 2023",2,"eher schwer","accuracy","Experiment.osexp","Bild_s2_o_9.png",1080,"ma",1999,"bi","orangene","C:/Users/steff/Documents/Universität/Master Psychologie/SS 2022/Masterarbeit/Experiment/subject-9.csv",0,0,0,"a",25,5,"a","a",564.155300031416,564.155300031416,9,NA,277191.888200003,NA,176518.070599996,220440.772700007,277756.657300051,276883.833799977,19373.573299963,NA,NA,4747.05210002139,NA,215446.434600046,276890.763000003,276346.305700019,NA,274813.514400041,NA,220561.783100013,5514.27010004409,37014.8749999935,62833.9807000011,79525.2266000025,105364.517600043,109888.620999991,220561.942100059,277756.730400026,NA,271580.921899993,203997.40750005,NA,NA,276045.535400044,215004.032699973,274441.135799978,NA,NA,NA,NA,NA,NA,176517.892000033,220554.81640005,NA,274813.437500037,NA,NA,276340.94819997,4748.06440004613,277191.981200012,4748.09480004478,276883.75649997,176517.094800016,NA,NA,5497.18509998638,NA,NA,116416.592700058,4,52826.8817001954,5,1,20,1,23,"Humanmedizin",5,3,3,3,3,3
83.3333333333333,96,8874.58311669373,"l","speed","bi1999ma","1","b","l","0","1","0",20,2,700,"Tue Mar 28 15:49:30 2023",1,"eher leicht","accuracy","Experiment.osexp","Bild_s3_b_1.png",1080,"ma",1999,"bi","orangene","C:/Users/steff/Documents/Universität/Master Psychologie/SS 2022/Masterarbeit/Experiment/subject-9.csv",0,0,0,"a",30,10,"l","l",420.616999967024,420.616999967024,9,NA,278999.450400006,NA,176518.070599996,220440.772700007,279420.724299969,278691.592899966,19373.573299963,NA,NA,4747.05210002139,NA,215446.434600046,278698.597799987,278125.263000024,NA,278196.930899983,NA,220561.783100013,5514.27010004409,37014.8749999935,62833.9807000011,79525.2266000025,105364.517600043,109888.620999991,220561.942100059,279420.800299966,NA,271580.921899993,203997.40750005,NA,NA,276045.535400044,215004.032699973,277824.509399943,NA,NA,NA,NA,NA,NA,176517.892000033,220554.81640005,NA,278196.857500006,NA,NA,278119.911600021,4748.06440004613,278999.538299977,4748.09480004478,278691.515399958,176517.094800016,NA,NA,5497.18509998638,NA,NA,116416.592700058,5,53247.4987001624,6,1,20,1,23,"Humanmedizin",5,3,3,3,3,3
85.7142857142857,96,7674.9792428787,"l","speed","bi1999ma","1","b","l","0","1","0",21,2,700,"Tue Mar 28 15:49:30 2023",1,"eher leicht","accuracy","Experiment.osexp","Bild_s3_b_13.png",1080,"ma",1999,"bi","orangene","C:/Users/steff/Documents/Universität/Master Psychologie/SS 2022/Masterarbeit/Experiment/subject-9.csv",0,0,0,"a",35,15,"l","l",477.355999988504,477.355999988504,9,NA,280590.619500028,NA,176518.070599996,220440.772700007,281068.677000003,280281.922299997,19373.573299963,NA,NA,4747.05210002139,NA,215446.434600046,280289.870499982,279751.829499961,NA,278196.930899983,NA,220561.783100013,5514.27010004409,37014.8749999935,62833.9807000011,79525.2266000025,105364.517600043,109888.620999991,220561.942100059,281068.750799983,NA,271580.921899993,203997.40750005,NA,NA,276045.535400044,215004.032699973,279451.231900021,NA,NA,NA,NA,NA,NA,176517.892000033,220554.81640005,NA,278196.857500006,NA,NA,279746.449199971,4748.06440004613,280590.798999998,4748.09480004478,280281.839999952,176517.094800016,NA,NA,5497.18509998638,NA,NA,116416.592700058,6,53724.8547001509,7,1,20,1,23,"Humanmedizin",5,3,3,3,3,3
75,96,6759.89837502129,"l","speed","bi1999ma","0","b","l","0","0","0",22,2,700,"Tue Mar 28 15:49:30 2023",0,"sehr leicht","accuracy","Experiment.osexp","Bild_s4_b_10.png",1080,"ma",1999,"bi","orangene","C:/Users/steff/Documents/Universität/Master Psychologie/SS 2022/Masterarbeit/Experiment/subject-9.csv",0,1,0,"a",25,5,"a","a",354.33230001945,354.33230001945,9,NA,282265.732100001,NA,176518.070599996,220440.772700007,282620.716099977,281957.660399959,19373.573299963,NA,NA,4747.05210002139,NA,215446.434600046,281964.931600029,281387.581699993,NA,281460.096700001,NA,220561.783100013,5514.27010004409,37014.8749999935,62833.9807000011,79525.2266000025,105364.517600043,109888.620999991,220561.942100059,282620.809699991,NA,271580.921899993,203997.40750005,NA,NA,276045.535400044,215004.032699973,281087.100000004,NA,NA,NA,NA,NA,NA,176517.892000033,220554.81640005,NA,281460.022900021,NA,NA,281382.300699945,4748.06440004613,282265.822099987,4748.09480004478,281957.583099953,176517.094800016,NA,NA,5497.18509998638,NA,NA,116416.592700058,6,54079.1870001704,8,1,20,1,23,"Humanmedizin",5,3,3,3,3,3
77.7777777777778,96,6059.72621112596,"l","speed","bi1999ma","1","o","a","0","1","0",23,2,700,"Tue Mar 28 15:49:30 2023",0,"sehr leicht","accuracy","Experiment.osexp","Bild_s4_o_11.png",1080,"ma",1999,"bi","orangene","C:/Users/steff/Documents/Universität/Master Psychologie/SS 2022/Masterarbeit/Experiment/subject-9.csv",0,0,0,"a",30,10,"a","a",458.348899963312,458.348899963312,9,NA,283793.718599947,NA,176518.070599996,220440.772700007,284252.795399982,283485.669699963,19373.573299963,NA,NA,4747.05210002139,NA,215446.434600046,283492.607900058,282939.767100033,NA,281460.096700001,NA,220561.783100013,5514.27010004409,37014.8749999935,62833.9807000011,79525.2266000025,105364.517600043,109888.620999991,220561.942100059,284252.871199977,NA,271580.921899993,203997.40750005,NA,NA,282639.214899973,215004.032699973,281087.100000004,NA,NA,NA,NA,NA,NA,176517.892000033,220554.81640005,NA,281460.022900021,NA,NA,282934.487799997,4748.06440004613,283793.804400018,4748.09480004478,283485.587400035,176517.094800016,NA,NA,5497.18509998638,NA,NA,116416.592700058,7,54537.5359001337,9,1,20,1,23,"Humanmedizin",5,3,3,3,3,3
80,96,5494.16661001742,"l","speed","bi1999ma","1","b","l","0","1","0",24,2,700,"Tue Mar 28 15:49:30 2023",0,"sehr leicht","accuracy","Experiment.osexp","Bild_s4_b_23.png",1080,"ma",1999,"bi","orangene","C:/Users/steff/Documents/Universität/Master Psychologie/SS 2022/Masterarbeit/Experiment/subject-9.csv",0,0,0,"a",35,15,"l","l",404.130200040527,404.130200040527,9,NA,285463.902699994,NA,176518.070599996,220440.772700007,285868.837499991,285155.946600018,19373.573299963,NA,NA,4747.05210002139,NA,215446.434600046,285163.04080002,284579.839100013,NA,284652.977399994,NA,220561.783100013,5514.27010004409,37014.8749999935,62833.9807000011,79525.2266000025,105364.517600043,109888.620999991,220561.942100059,285868.913399987,NA,271580.921899993,203997.40750005,NA,NA,282639.214899973,215004.032699973,284279.003400006,NA,NA,NA,NA,NA,NA,176517.892000033,220554.81640005,NA,284652.904800023,NA,NA,284574.491000036,4748.06440004613,285463.988299947,4748.09480004478,285155.866699992,176517.094800016,NA,NA,5497.18509998638,NA,NA,116416.592700058,8,54941.6661001742,10,1,20,1,23,"Humanmedizin",5,3,3,3,3,3
81.8181818181818,96,5036.6754363799,"l","speed","bi1999ma","1","b","l","0","1","0",25,2,700,"Tue Mar 28 15:49:30 2023",0,"sehr leicht","accuracy","Experiment.osexp","Bild_s4_b_4.png",1080,"ma",1999,"bi","orangene","C:/Users/steff/Documents/Universität/Master Psychologie/SS 2022/Masterarbeit/Experiment/subject-9.csv",0,0,0,"a",40,20,"l","l",461.763700004667,461.763700004667,9,NA,287054.272899986,NA,176518.070599996,220440.772700007,287516.881400021,286746.042800019,19373.573299963,NA,NA,4747.05210002139,NA,215446.434600046,286753.253199975,286182.693799958,NA,284652.977399994,NA,220561.783100013,5514.27010004409,37014.8749999935,62833.9807000011,79525.2266000025,105364.517600043,109888.620999991,220561.942100059,287516.955800005,NA,271580.921899993,203997.40750005,NA,NA,282639.214899973,215004.032699973,285881.899000029,NA,NA,NA,NA,NA,NA,176517.892000033,220554.81640005,NA,284652.904800023,NA,NA,286177.353900042,4748.06440004613,287054.359299946,4748.09480004478,286745.960899978,176517.094800016,NA,NA,5497.18509998638,NA,NA,116416.592700058,9,55403.4298001789,11,1,20,1,23,"Humanmedizin",5,3,3,3,3,3
75,96,4650.2116000144,"l","speed","bi1999ma","0","b","l","0","0","0",26,2,700,"Tue Mar 28 15:49:30 2023",1,"eher leicht","accuracy","Experiment.osexp","Bild_s3_b_3.png",1080,"ma",1999,"bi","orangene","C:/Users/steff/Documents/Universität/Master Psychologie/SS 2022/Masterarbeit/Experiment/subject-9.csv",0,1,0,"a",30,10,"a","a",399.109399993904,399.109399993904,9,NA,288716.967100045,NA,176518.070599996,220440.772700007,289116.710099974,288409.086999949,19373.573299963,NA,NA,4747.05210002139,NA,215446.434600046,288416.408000048,287841.779800016,NA,287912.580100005,NA,220561.783100013,5514.27010004409,37014.8749999935,62833.9807000011,79525.2266000025,105364.517600043,109888.620999991,220561.942100059,289116.812400054,NA,271580.921899993,203997.40750005,NA,NA,282639.214899973,215004.032699973,287540.991600021,NA,NA,NA,NA,NA,NA,176517.892000033,220554.81640005,NA,287912.50570002,NA,NA,287836.501699989,4748.06440004613,288717.050699983,4748.09480004478,288409.002200002,176517.094800016,NA,NA,5497.18509998638,NA,NA,116416.592700058,9,55802.5392001728,12,1,20,1,23,"Humanmedizin",5,3,3,3,3,3
69.2307692307692,96,4325.70913078514,"l","speed","bi1999ma","0","o","a","0","0","0",27,2,700,"Tue Mar 28 15:49:30 2023",1,"eher leicht","accuracy","Experiment.osexp","Bild_s3_o_20.png",1080,"ma",1999,"bi","orangene","C:/Users/steff/Documents/Universität/Master Psychologie/SS 2022/Masterarbeit/Experiment/subject-9.csv",0,1,0,"a",20,0,"l","l",431.679500034079,431.679500034079,9,NA,290284.359900048,NA,176518.070599996,220440.772700007,290716.713699978,289976.346299984,19373.573299963,NA,NA,4747.05210002139,NA,215446.434600046,289983.244200004,289431.06740003,NA,287912.580100005,NA,220561.783100013,5514.27010004409,37014.8749999935,62833.9807000011,79525.2266000025,105364.517600043,109888.620999991,220561.942100059,290716.810400016,NA,271580.921899993,203997.40750005,NA,NA,289130.838499987,215004.032699973,287540.991600021,NA,NA,NA,NA,NA,NA,176517.892000033,220554.81640005,NA,287912.50570002,NA,NA,289425.780100049,4748.06440004613,290284.448200022,4748.09480004478,289976.263100049,176517.094800016,NA,NA,5497.18509998638,NA,NA,116416.592700058,9,56234.2187002068,13,1,20,1,23,"Humanmedizin",5,3,3,3,3,3
71.4285714285714,96,4065.84855715378,"l","speed","bi1999ma","1","b","l","0","1","0",28,2,700,"Tue Mar 28 15:49:30 2023",2,"eher schwer","accuracy","Experiment.osexp","Bild_s2_b_2.png",1080,"ma",1999,"bi","orangene","C:/Users/steff/Documents/Universität/Master Psychologie/SS 2022/Masterarbeit/Experiment/subject-9.csv",0,0,0,"a",25,5,"l","l",687.661099946126,687.661099946126,9,NA,291916.383399977,NA,176518.070599996,220440.772700007,292604.704200057,291608.486799989,19373.573299963,NA,NA,4747.05210002139,NA,215446.434600046,291615.365099977,291031.934899976,NA,291105.520699988,NA,220561.783100013,5514.27010004409,37014.8749999935,62833.9807000011,79525.2266000025,105364.517600043,109888.620999991,220561.942100059,292604.784899973,NA,271580.921899993,203997.40750005,NA,NA,290731.416400056,215004.032699973,287540.991600021,NA,NA,NA,NA,NA,NA,176517.892000033,220554.81640005,NA,291105.448300019,NA,NA,291026.72980004,4748.06440004613,291916.469500051,4748.09480004478,291608.40789997,176517.094800016,NA,NA,5497.18509998638,NA,NA,116416.592700058,10,56921.879800153,14,1,20,1,23,"Humanmedizin",5,3,3,3,3,3
66.6666666666667,96,3826.18413333936,"l","speed","bi1999ma","0","b","l","0","0","0",29,2,700,"Tue Mar 28 15:49:30 2023",2,"eher schwer","accuracy","Experiment.osexp","Bild_s2_b_15.png",1080,"ma",1999,"bi","orangene","C:/Users/steff/Documents/Universität/Master Psychologie/SS 2022/Masterarbeit/Experiment/subject-9.csv",0,1,0,"a",15,-5,"a","a",470.882199937478,470.882199937478,9,NA,293765.175599954,NA,176518.070599996,220440.772700007,294236.635699985,293457.160399994,19373.573299963,NA,NA,4747.05210002139,NA,215446.434600046,293464.071900002,292916.572100017,NA,291105.520699988,NA,220561.783100013,5514.27010004409,37014.8749999935,62833.9807000011,79525.2266000025,105364.517600043,109888.620999991,220561.942100059,294236.734000035,NA,271580.921899993,203997.40750005,NA,NA,290731.416400056,215004.032699973,292616.031900048,NA,NA,NA,NA,NA,NA,176517.892000033,220554.81640005,NA,291105.448300019,NA,NA,292911.232099985,4748.06440004613,293765.262200031,4748.09480004478,293457.080999971,176517.094800016,NA,NA,5497.18509998638,NA,NA,116416.592700058,10,57392.7620000904,15,1,20,1,23,"Humanmedizin",5,3,3,3,3,3
68.75,96,3621.04276250466,"l","speed","bi1999ma","1","o","a","0","1","0",30,2,700,"Tue Mar 28 15:49:30 2023",3,"sehr schwer","accuracy","Experiment.osexp","Bild_s1_o_7.png",1080,"ma",1999,"bi","orangene","C:/Users/steff/Documents/Universität/Master Psychologie/SS 2022/Masterarbeit/Experiment/subject-9.csv",0,0,0,"a",20,0,"a","a",543.922199984081,543.922199984081,9,NA,295435.997199966,NA,176518.070599996,220440.772700007,295980.864600046,295127.944499953,19373.573299963,NA,NA,4747.05210002139,NA,215446.434600046,295135.309000034,294551.539200009,NA,294627.509100013,NA,220561.783100013,5514.27010004409,37014.8749999935,62833.9807000011,79525.2266000025,105364.517600043,109888.620999991,220561.942100059,295980.947099975,NA,271580.921899993,203997.40750005,NA,NA,294251.005499973,215004.032699973,292616.031900048,NA,NA,NA,NA,NA,NA,176517.892000033,220554.81640005,NA,294627.43610004,NA,NA,294546.129500028,4748.06440004613,295436.186300009,4748.09480004478,295127.865000046,176517.094800016,NA,NA,5497.18509998638,NA,NA,116416.592700058,11,57936.6842000745,16,1,20,1,23,"Humanmedizin",5,3,3,3,3,3
64.7058823529412,96,3448.77638235716,"l","speed","bi1999ma","0","b","l","0","0","0",31,2,700,"Tue Mar 28 15:49:30 2023",3,"sehr schwer","accuracy","Experiment.osexp","Bild_s1_b_13.png",1080,"ma",1999,"bi","orangene","C:/Users/steff/Documents/Universität/Master Psychologie/SS 2022/Masterarbeit/Experiment/subject-9.csv",0,1,0,"a",10,-10,"a","a",692.514299997129,692.514299997129,9,NA,297143.531000009,NA,176518.070599996,220440.772700007,297836.713499972,296835.339299985,19373.573299963,NA,NA,4747.05210002139,NA,215446.434600046,296842.647099984,296293.772000005,NA,294627.509100013,NA,220561.783100013,5514.27010004409,37014.8749999935,62833.9807000011,79525.2266000025,105364.517600043,109888.620999991,220561.942100059,297836.816000054,NA,271580.921899993,203997.40750005,NA,NA,294251.005499973,215004.032699973,295993.434999953,NA,NA,NA,NA,NA,NA,176517.892000033,220554.81640005,NA,294627.43610004,NA,NA,296288.502600044,4748.06440004613,297143.618499977,4748.09480004478,296835.262499982,176517.094800016,NA,NA,5497.18509998638,NA,NA,116416.592700058,11,58629.1985000717,17,1,20,1,23,"Humanmedizin",5,3,3,3,3,3
100,96,53387.7237999889,"l","accuracy","bi1999ma","1","b","l","1","0","0",32,3,700,"Tue Mar 28 15:49:30 2023",2,"eher schwer","accuracy","Experiment.osexp","Bild_s2_b_22.png",1080,"ma",1999,"bi","orangene","C:/Users/steff/Documents/Universität/Master Psychologie/SS 2022/Masterarbeit/Experiment/subject-9.csv",0,0,0,"a",5,5,"l","l",800.42450001929,800.42450001929,9,NA,380907.524100039,376451.995500014,176518.070599996,303300.628999947,381708.904900006,380598.867999972,19373.573299963,303371.872200049,NA,4747.05210002139,NA,298305.412500049,380605.864500045,298163.531200029,380077.553799958,294627.509100013,376547.189999954,220561.783100013,5514.27010004409,37014.8749999935,62833.9807000011,79525.2266000025,105364.517600043,109888.620999991,376547.461600043,381708.975499962,380076.732099988,271580.921899993,203997.40750005,NA,NA,297863.036500057,215004.032699973,295993.434999953,NA,NA,NA,NA,NA,376540.216700057,176517.892000033,220554.81640005,380077.511799987,294627.43610004,376451.930799987,376396.98900003,298158.187099965,4748.06440004613,380907.642500009,4748.09480004478,380598.669199971,176517.094800016,303367.506299983,303333.882499952,5497.18509998638,NA,NA,116416.592700058,3,160163.171399967,3,0,10,1,23,"Humanmedizin",5,3,3,3,3,3
100,96,40188.5703250009,"l","accuracy","bi1999ma","1","o","a","1","0","0",33,3,700,"Tue Mar 28 15:49:30 2023",2,"eher schwer","accuracy","Experiment.osexp","Bild_s2_o_8.png",1080,"ma",1999,"bi","orangene","C:/Users/steff/Documents/Universität/Master Psychologie/SS 2022/Masterarbeit/Experiment/subject-9.csv",0,0,0,"a",10,10,"a","a",591.109900036827,591.109900036827,9,NA,382876.868800027,376451.995500014,176518.070599996,303300.628999947,383468.731099973,382569.124300033,19373.573299963,303371.872200049,NA,4747.05210002139,NA,298305.412500049,382575.968899997,382025.269699981,380077.553799958,294627.509100013,376547.189999954,220561.783100013,5514.27010004409,37014.8749999935,62833.9807000011,79525.2266000025,105364.517600043,109888.620999991,376547.461600043,383468.799500028,380076.732099988,271580.921899993,203997.40750005,NA,NA,297863.036500057,381724.515200011,295993.434999953,NA,NA,NA,NA,NA,376540.216700057,176517.892000033,220554.81640005,380077.511799987,294627.43610004,376451.930799987,376396.98900003,382019.856299972,4748.06440004613,382876.959000016,4748.09480004478,382569.042699994,176517.094800016,303367.506299983,303333.882499952,5497.18509998638,NA,NA,116416.592700058,4,160754.281300004,4,0,10,1,23,"Humanmedizin",5,3,3,3,3,3
80,96,32290.7696200069,"l","accuracy","bi1999ma","0","b","l","0","0","0",34,3,700,"Tue Mar 28 15:49:30 2023",2,"eher schwer","accuracy","Experiment.osexp","Bild_s2_b_23.png",1080,"ma",1999,"bi","orangene","C:/Users/steff/Documents/Universität/Master Psychologie/SS 2022/Masterarbeit/Experiment/subject-9.csv",1,0,0,"a",0,0,"a","a",699.56680003088,699.56680003088,9,NA,384624.289999949,376451.995500014,176518.070599996,303300.628999947,385324.81869997,384316.518699983,19373.573299963,303371.872200049,NA,4747.05210002139,NA,298305.412500049,384323.825399973,383784.908200032,380077.553799958,294627.509100013,376547.189999954,220561.783100013,5514.27010004409,37014.8749999935,62833.9807000011,79525.2266000025,105364.517600043,109888.620999991,376547.461600043,385324.892999954,380076.732099988,271580.921899993,203997.40750005,NA,NA,297863.036500057,383484.230499947,295993.434999953,NA,NA,NA,NA,NA,376540.216700057,176517.892000033,220554.81640005,380077.511799987,294627.43610004,376451.930799987,376396.98900003,383779.599500005,4748.06440004613,384624.473699951,4748.09480004478,384316.440999974,176517.094800016,303367.506299983,303333.882499952,5497.18509998638,NA,NA,116416.592700058,4,161453.848100035,5,0,10,1,23,"Humanmedizin",5,3,3,3,3,3
66.6666666666667,96,27075.4775666671,"l","accuracy","bi1999ma","0","b","l","0","0","0",35,3,700,"Tue Mar 28 15:49:30 2023",2,"eher schwer","accuracy","Experiment.osexp","Bild_s2_b_7.png",1080,"ma",1999,"bi","orangene","C:/Users/steff/Documents/Universität/Master Psychologie/SS 2022/Masterarbeit/Experiment/subject-9.csv",1,0,0,"a",-10,-10,"a","a",999.017299967818,999.017299967818,9,NA,386484.924399992,376451.995500014,176518.070599996,303300.628999947,387484.644799959,386177.189599955,19373.573299963,303371.872200049,NA,4747.05210002139,NA,298305.412500049,386184.045100003,385643.00130005,380077.553799958,294627.509100013,376547.189999954,220561.783100013,5514.27010004409,37014.8749999935,62833.9807000011,79525.2266000025,105364.517600043,109888.620999991,376547.461600043,387484.714700026,380076.732099988,271580.921899993,385342.598399962,NA,NA,297863.036500057,383484.230499947,295993.434999953,NA,NA,NA,NA,NA,376540.216700057,176517.892000033,220554.81640005,380077.511799987,294627.43610004,376451.930799987,376396.98900003,385637.701799977,4748.06440004613,386485.054600053,4748.09480004478,386177.107500029,176517.094800016,303367.506299983,303333.882499952,5497.18509998638,NA,NA,116416.592700058,4,162452.865400002,6,0,10,1,23,"Humanmedizin",5,3,3,3,3,3
57.1428571428571,96,23483.7838714344,"l","accuracy","bi1999ma","0","b","l","0","0","0",36,3,700,"Tue Mar 28 15:49:30 2023",2,"eher schwer","accuracy","Experiment.osexp","Bild_s2_b_14.png",1080,"ma",1999,"bi","orangene","C:/Users/steff/Documents/Universität/Master Psychologie/SS 2022/Masterarbeit/Experiment/subject-9.csv",1,0,0,"a",-20,-20,"a","a",1933.6217000382,1933.6217000382,9,NA,388654.309500009,376451.995500014,176518.070599996,303300.628999947,390588.605400058,388346.531999996,19373.573299963,303371.872200049,NA,4747.05210002139,NA,298305.412500049,388353.732599993,387803.79679997,380077.553799958,294627.509100013,376547.189999954,220561.783100013,5514.27010004409,37014.8749999935,62833.9807000011,79525.2266000025,105364.517600043,109888.620999991,376547.461600043,390588.673499995,380076.732099988,271580.921899993,387503.224099986,NA,NA,297863.036500057,383484.230499947,295993.434999953,NA,NA,NA,NA,NA,376540.216700057,176517.892000033,220554.81640005,380077.511799987,294627.43610004,376451.930799987,376396.98900003,387798.486800049,4748.06440004613,388654.447700013,4748.09480004478,388346.452599973,176517.094800016,303367.506299983,303333.882499952,5497.18509998638,NA,NA,116416.592700058,4,164386.487100041,7,0,10,1,23,"Humanmedizin",5,3,3,3,3,3
62.5,96,20647.5142249983,"l","accuracy","bi1999ma","1","o","a","1","0","0",37,3,700,"Tue Mar 28 15:49:30 2023",2,"eher schwer","accuracy","Experiment.osexp","Bild_s2_o_4.png",1080,"ma",1999,"bi","orangene","C:/Users/steff/Documents/Universität/Master Psychologie/SS 2022/Masterarbeit/Experiment/subject-9.csv",0,0,0,"a",-15,-15,"a","a",793.626699945889,793.626699945889,9,NA,391762.341300026,376451.995500014,176518.070599996,303300.628999947,392556.547999964,391454.329899978,19373.573299963,303371.872200049,NA,4747.05210002139,NA,298305.412500049,391461.213700008,390917.091300013,380077.553799958,294627.509100013,376547.189999954,220561.783100013,5514.27010004409,37014.8749999935,62833.9807000011,79525.2266000025,105364.517600043,109888.620999991,376547.461600043,392556.618500035,380076.732099988,271580.921899993,390616.536500049,NA,NA,297863.036500057,383484.230499947,295993.434999953,NA,NA,NA,NA,NA,376540.216700057,176517.892000033,220554.81640005,380077.511799987,294627.43610004,376451.930799987,376396.98900003,390911.812899983,4748.06440004613,391762.429299997,4748.09480004478,391454.249299946,176517.094800016,303367.506299983,303333.882499952,5497.18509998638,NA,NA,116416.592700058,5,165180.113799986,8,0,10,1,23,"Humanmedizin",5,3,3,3,3,3
66.6666666666667,96,18433.1893222148,"l","accuracy","bi1999ma","1","b","l","1","0","0",38,3,700,"Tue Mar 28 15:49:30 2023",2,"eher schwer","accuracy","Experiment.osexp","Bild_s2_b_25.png",1080,"ma",1999,"bi","orangene","C:/Users/steff/Documents/Universität/Master Psychologie/SS 2022/Masterarbeit/Experiment/subject-9.csv",0,0,0,"a",-10,-10,"l","l",718.590099946596,718.590099946596,9,NA,393725.376200047,376451.995500014,176518.070599996,303300.628999947,394444.67300002,393416.295800009,19373.573299963,303371.872200049,NA,4747.05210002139,NA,298305.412500049,393423.249199986,392881.154299947,380077.553799958,294627.509100013,376547.189999954,220561.783100013,5514.27010004409,37014.8749999935,62833.9807000011,79525.2266000025,105364.517600043,109888.620999991,376547.461600043,394444.741399959,380076.732099988,271580.921899993,390616.536500049,NA,NA,297863.036500057,392580.633300007,295993.434999953,NA,NA,NA,NA,NA,376540.216700057,176517.892000033,220554.81640005,380077.511799987,294627.43610004,376451.930799987,376396.98900003,392875.892400043,4748.06440004613,393725.463800016,4748.09480004478,393416.217599995,176517.094800016,303367.506299983,303333.882499952,5497.18509998638,NA,NA,116416.592700058,6,165898.703899933,9,0,10,1,23,"Humanmedizin",5,3,3,3,3,3
70,96,16663.2257699966,"l","accuracy","bi1999ma","1","o","a","1","0","0",39,3,700,"Tue Mar 28 15:49:30 2023",2,"eher schwer","accuracy","Experiment.osexp","Bild_s2_o_7.png",1080,"ma",1999,"bi","orangene","C:/Users/steff/Documents/Universität/Master Psychologie/SS 2022/Masterarbeit/Experiment/subject-9.csv",0,0,0,"a",-5,-5,"a","a",733.553800033405,733.553800033405,9,NA,395614.333100035,376451.995500014,176518.070599996,303300.628999947,396348.811500007,395306.461300002,19373.573299963,303371.872200049,NA,4747.05210002139,NA,298305.412500049,395313.763499958,394772.933200002,380077.553799958,294627.509100013,376547.189999954,220561.783100013,5514.27010004409,37014.8749999935,62833.9807000011,79525.2266000025,105364.517600043,109888.620999991,376547.461600043,396348.887700005,380076.732099988,271580.921899993,390616.536500049,NA,NA,297863.036500057,394472.630199976,295993.434999953,NA,NA,NA,NA,NA,376540.216700057,176517.892000033,220554.81640005,380077.511799987,294627.43610004,376451.930799987,376396.98900003,394767.619800055,4748.06440004613,395614.505499951,4748.09480004478,395306.379099959,176517.094800016,303367.506299983,303333.882499952,5497.18509998638,NA,NA,116416.592700058,7,166632.257699966,10,0,10,1,23,"Humanmedizin",5,3,3,3,3,3
72.7272727272727,96,15207.772127268,"l","accuracy","bi1999ma","1","o","a","1","0","0",40,3,700,"Tue Mar 28 15:49:30 2023",1,"eher leicht","accuracy","Experiment.osexp","Bild_s3_o_11.png",1080,"ma",1999,"bi","orangene","C:/Users/steff/Documents/Universität/Master Psychologie/SS 2022/Masterarbeit/Experiment/subject-9.csv",0,0,0,"a",0,0,"a","a",653.235699981451,653.235699981451,9,NA,397550.730300019,376451.995500014,176518.070599996,303300.628999947,398204.536400037,397242.781699984,19373.573299963,303371.872200049,NA,4747.05210002139,NA,298305.412500049,397249.610599945,396661.931099952,396739.284500014,294627.509100013,376547.189999954,220561.783100013,5514.27010004409,37014.8749999935,62833.9807000011,79525.2266000025,105364.517600043,109888.620999991,376547.461600043,398204.608600005,380076.732099988,271580.921899993,390616.536500049,NA,NA,297863.036500057,396361.268099979,295993.434999953,NA,NA,NA,NA,NA,376540.216700057,176517.892000033,220554.81640005,396739.209800027,294627.43610004,376451.930799987,376396.98900003,396656.621900038,4748.06440004613,397550.821200013,4748.09480004478,397242.702499963,176517.094800016,303367.506299983,303333.882499952,5497.18509998638,NA,NA,116416.592700058,8,167285.493399948,11,0,10,1,23,"Humanmedizin",5,3,3,3,3,3
75,96,14014.0599083291,"l","accuracy","bi1999ma","1","b","l","1","0","0",41,3,700,"Tue Mar 28 15:49:30 2023",1,"eher leicht","accuracy","Experiment.osexp","Bild_s3_b_15.png",1080,"ma",1999,"bi","orangene","C:/Users/steff/Documents/Universität/Master Psychologie/SS 2022/Masterarbeit/Experiment/subject-9.csv",0,0,0,"a",5,5,"l","l",883.225500001572,883.225500001572,9,NA,399368.733500014,376451.995500014,176518.070599996,303300.628999947,400252.796899993,399060.735899955,19373.573299963,303371.872200049,NA,4747.05210002139,NA,298305.412500049,399067.652099999,398532.795800013,396739.284500014,294627.509100013,376547.189999954,220561.783100013,5514.27010004409,37014.8749999935,62833.9807000011,79525.2266000025,105364.517600043,109888.620999991,376547.461600043,400252.877000021,380076.732099988,271580.921899993,390616.536500049,NA,NA,297863.036500057,398232.252600021,295993.434999953,NA,NA,NA,NA,NA,376540.216700057,176517.892000033,220554.81640005,396739.209800027,294627.43610004,376451.930799987,376396.98900003,398527.359299944,4748.06440004613,399368.8234,4748.09480004478,399060.658199945,176517.094800016,303367.506299983,303333.882499952,5497.18509998638,NA,NA,116416.592700058,9,168168.718899949,12,0,10,1,23,"Humanmedizin",5,3,3,3,3,3
76.9230769230769,96,12987.341753843,"l","accuracy","bi1999ma","1","o","a","1","0","0",42,3,700,"Tue Mar 28 15:49:30 2023",1,"eher leicht","accuracy","Experiment.osexp","Bild_s3_o_2.png",1080,"ma",1999,"bi","orangene","C:/Users/steff/Documents/Universität/Master Psychologie/SS 2022/Masterarbeit/Experiment/subject-9.csv",0,0,0,"a",10,10,"a","a",666.723900008947,666.723900008947,9,NA,401425.241900026,376451.995500014,176518.070599996,303300.628999947,402092.837100034,401117.457299959,19373.573299963,303371.872200049,NA,4747.05210002139,NA,298305.412500049,401124.309099978,400578.182699974,396739.284500014,294627.509100013,376547.189999954,220561.783100013,5514.27010004409,37014.8749999935,62833.9807000011,79525.2266000025,105364.517600043,109888.620999991,376547.461600043,402092.915200046,380076.732099988,271580.921899993,390616.536500049,NA,NA,297863.036500057,400277.604499948,295993.434999953,NA,NA,NA,NA,NA,376540.216700057,176517.892000033,220554.81640005,396739.209800027,294627.43610004,376451.930799987,376396.98900003,400572.92820001,4748.06440004613,401425.330600003,4748.09480004478,401117.378100054,176517.094800016,303367.506299983,303333.882499952,5497.18509998638,NA,NA,116416.592700058,10,168835.442799958,13,0,10,1,23,"Humanmedizin",5,3,3,3,3,3
78.5714285714286,96,12147.2559857149,"l","accuracy","bi1999ma","1","b","l","1","0","0",43,3,700,"Tue Mar 28 15:49:30 2023",1,"eher leicht","accuracy","Experiment.osexp","Bild_s3_b_13.png",1080,"ma",1999,"bi","orangene","C:/Users/steff/Documents/Universität/Master Psychologie/SS 2022/Masterarbeit/Experiment/subject-9.csv",0,0,0,"a",15,15,"l","l",1226.14100005012,1226.14100005012,9,NA,403249.824599945,376451.995500014,176518.070599996,303300.628999947,404476.574299973,402941.235000035,19373.573299963,303371.872200049,NA,4747.05210002139,NA,298305.412500049,402948.43670004,402405.872100033,396739.284500014,294627.509100013,376547.189999954,220561.783100013,5514.27010004409,37014.8749999935,62833.9807000011,79525.2266000025,105364.517600043,109888.620999991,376547.461600043,404476.64550005,380076.732099988,271580.921899993,390616.536500049,NA,NA,297863.036500057,402105.051400024,295993.434999953,NA,NA,NA,NA,NA,376540.216700057,176517.892000033,220554.81640005,396739.209800027,294627.43610004,376451.930799987,376396.98900003,402400.54209996,4748.06440004613,403249.906399986,4748.09480004478,402941.157500027,176517.094800016,303367.506299983,303333.882499952,5497.18509998638,NA,NA,116416.592700058,11,170061.583800009,14,0,10,1,23,"Humanmedizin",5,3,3,3,3,3
80,96,11379.7245066691,"l","accuracy","bi1999ma","1","o","a","1","0","0",44,3,700,"Tue Mar 28 15:49:30 2023",1,"eher leicht","accuracy","Experiment.osexp","Bild_s3_o_20.png",1080,"ma",1999,"bi","orangene","C:/Users/steff/Documents/Universität/Master Psychologie/SS 2022/Masterarbeit/Experiment/subject-9.csv",0,0,0,"a",20,20,"a","a",634.283800027333,634.283800027333,9,NA,405633.723899955,376451.995500014,176518.070599996,303300.628999947,406268.603799981,405325.884600054,19373.573299963,303371.872200049,NA,4747.05210002139,NA,298305.412500049,405333.13439996,404788.668400026,396739.284500014,294627.509100013,376547.189999954,220561.783100013,5514.27010004409,37014.8749999935,62833.9807000011,79525.2266000025,105364.517600043,109888.620999991,376547.461600043,406268.673000042,380076.732099988,271580.921899993,390616.536500049,NA,NA,297863.036500057,404488.969999948,295993.434999953,NA,NA,NA,NA,NA,376540.216700057,176517.892000033,220554.81640005,396739.209800027,294627.43610004,376451.930799987,376396.98900003,404783.475899952,4748.06440004613,405633.8063,4748.09480004478,405325.804700027,176517.094800016,303367.506299983,303333.882499952,5497.18509998638,NA,NA,116416.592700058,12,170695.867600036,15,0,10,1,23,"Humanmedizin",5,3,3,3,3,3
81.25,96,10716.3913687473,"l","accuracy","bi1999ma","1","b","l","1","0","0",45,3,700,"Tue Mar 28 15:49:30 2023",1,"eher leicht","accuracy","Experiment.osexp","Bild_s3_b_2.png",1080,"ma",1999,"bi","orangene","C:/Users/steff/Documents/Universität/Master Psychologie/SS 2022/Masterarbeit/Experiment/subject-9.csv",0,0,0,"a",25,25,"l","l",766.394299920648,766.394299920648,9,NA,407437.601899961,376451.995500014,176518.070599996,303300.628999947,408205.248599988,407129.807000048,19373.573299963,303371.872200049,NA,4747.05210002139,NA,298305.412500049,407137.094000005,406587.023,396739.284500014,294627.509100013,376547.189999954,220561.783100013,5514.27010004409,37014.8749999935,62833.9807000011,79525.2266000025,105364.517600043,109888.620999991,376547.461600043,408205.316800042,380076.732099988,271580.921899993,390616.536500049,NA,NA,297863.036500057,406286.38439998,295993.434999953,NA,NA,NA,NA,NA,376540.216700057,176517.892000033,220554.81640005,396739.209800027,294627.43610004,376451.930799987,376396.98900003,406581.657600007,4748.06440004613,407437.687700032,4748.09480004478,407129.726200015,176517.094800016,303367.506299983,303333.882499952,5497.18509998638,NA,NA,116416.592700058,13,171462.261899957,16,0,10,1,23,"Humanmedizin",5,3,3,3,3,3
82.3529411764706,96,10127.3544294047,"l","accuracy","bi1999ma","1","o","a","1","0","0",46,3,700,"Tue Mar 28 15:49:30 2023",1,"eher leicht","accuracy","Experiment.osexp","Bild_s3_o_18.png",1080,"ma",1999,"bi","orangene","C:/Users/steff/Documents/Universität/Master Psychologie/SS 2022/Masterarbeit/Experiment/subject-9.csv",0,0,0,"a",30,30,"a","a",702.763399924152,702.763399924152,9,NA,409373.239999986,376451.995500014,176518.070599996,303300.628999947,410076.78959996,409064.977800008,19373.573299963,303371.872200049,NA,4747.05210002139,NA,298305.412500049,409072.247999953,408533.055700012,396739.284500014,294627.509100013,376547.189999954,220561.783100013,5514.27010004409,37014.8749999935,62833.9807000011,79525.2266000025,105364.517600043,109888.620999991,376547.461600043,410076.859200024,380076.732099988,271580.921899993,390616.536500049,NA,NA,297863.036500057,408232.634100015,295993.434999953,NA,NA,NA,NA,NA,376540.216700057,176517.892000033,220554.81640005,396739.209800027,294627.43610004,376451.930799987,376396.98900003,408527.799800038,4748.06440004613,409373.321800027,4748.09480004478,409064.898199984,176517.094800016,303367.506299983,303333.882499952,5497.18509998638,NA,NA,116416.592700058,14,172165.025299881,17,0,10,1,23,"Humanmedizin",5,3,3,3,3,3
83.3333333333333,96,9598.28007776782,"l","accuracy","bi1999ma","1","o","a","1","0","0",47,3,700,"Tue Mar 28 15:49:30 2023",1,"eher leicht","accuracy","Experiment.osexp","Bild_s3_o_9.png",1080,"ma",1999,"bi","orangene","C:/Users/steff/Documents/Universität/Master Psychologie/SS 2022/Masterarbeit/Experiment/subject-9.csv",0,0,0,"a",35,35,"a","a",604.016099940054,604.016099940054,9,NA,411247.931199963,376451.995500014,176518.070599996,303300.628999947,411852.558600018,410940.345400013,19373.573299963,303371.872200049,NA,4747.05210002139,NA,298305.412500049,410947.31790002,410405.316999997,396739.284500014,294627.509100013,376547.189999954,220561.783100013,5514.27010004409,37014.8749999935,62833.9807000011,79525.2266000025,105364.517600043,109888.620999991,376547.461600043,411852.631499991,380076.732099988,271580.921899993,390616.536500049,NA,NA,297863.036500057,410104.567599948,295993.434999953,NA,NA,NA,NA,NA,376540.216700057,176517.892000033,220554.81640005,396739.209800027,294627.43610004,376451.930799987,376396.98900003,410399.861300015,4748.06440004613,411248.018900049,4748.09480004478,410940.268300008,176517.094800016,303367.506299983,303333.882499952,5497.18509998638,NA,NA,116416.592700058,15,172769.041399821,18,0,10,1,23,"Humanmedizin",5,3,3,3,3,3
84.2105263157895,96,9119.550910521,"l","accuracy","bi1999ma","1","o","a","1","0","0",48,3,700,"Tue Mar 28 15:49:30 2023",0,"sehr leicht","accuracy","Experiment.osexp","Bild_s4_o_21.png",1080,"ma",1999,"bi","orangene","C:/Users/steff/Documents/Universität/Master Psychologie/SS 2022/Masterarbeit/Experiment/subject-9.csv",0,0,0,"a",40,40,"a","a",502.425900078379,502.425900078379,9,NA,413045.534200035,376451.995500014,176518.070599996,303300.628999947,413548.569299979,412737.370699993,19373.573299963,303371.872200049,NA,4747.05210002139,NA,298305.412500049,412744.699100033,412167.373999953,412239.465999999,294627.509100013,376547.189999954,220561.783100013,5514.27010004409,37014.8749999935,62833.9807000011,79525.2266000025,105364.517600043,109888.620999991,376547.461600043,413548.638100037,380076.732099988,271580.921899993,390616.536500049,NA,NA,297863.036500057,411866.746200016,295993.434999953,NA,NA,NA,NA,NA,376540.216700057,176517.892000033,220554.81640005,412239.393300028,294627.43610004,376451.930799987,376396.98900003,412162.06620005,4748.06440004613,413045.616399962,4748.09480004478,412737.289699959,176517.094800016,303367.506299983,303333.882499952,5497.18509998638,NA,NA,116416.592700058,16,173271.467299899,19,0,10,1,23,"Humanmedizin",5,3,3,3,3,3
85,96,8691.47919999668,"l","accuracy","bi1999ma","1","b","l","1","0","0",49,3,700,"Tue Mar 28 15:49:30 2023",0,"sehr leicht","accuracy","Experiment.osexp","Bild_s4_b_8.png",1080,"ma",1999,"bi","orangene","C:/Users/steff/Documents/Universität/Master Psychologie/SS 2022/Masterarbeit/Experiment/subject-9.csv",0,0,0,"a",45,45,"l","l",558.116700034589,558.116700034589,9,NA,414717.844099971,376451.995500014,176518.070599996,303300.628999947,415276.647199993,414410.064699943,19373.573299963,303371.872200049,NA,4747.05210002139,NA,298305.412500049,414417.521200026,413876.034599962,412239.465999999,294627.509100013,376547.189999954,220561.783100013,5514.27010004409,37014.8749999935,62833.9807000011,79525.2266000025,105364.517600043,109888.620999991,376547.461600043,415276.716600056,380076.732099988,271580.921899993,390616.536500049,NA,NA,297863.036500057,413575.257200049,295993.434999953,NA,NA,NA,NA,NA,376540.216700057,176517.892000033,220554.81640005,412239.393300028,294627.43610004,376451.930799987,376396.98900003,413870.685899979,4748.06440004613,414717.924199998,4748.09480004478,414409.98180001,176517.094800016,303367.506299983,303333.882499952,5497.18509998638,NA,NA,116416.592700058,17,173829.583999934,20,0,10,1,23,"Humanmedizin",5,3,3,3,3,3
85.7142857142857,96,8306.23626666299,"l","accuracy","bi1999ma","1","b","l","1","0","0",50,3,700,"Tue Mar 28 15:49:30 2023",0,"sehr leicht","accuracy","Experiment.osexp","Bild_s4_b_4.png",1080,"ma",1999,"bi","orangene","C:/Users/steff/Documents/Universität/Master Psychologie/SS 2022/Masterarbeit/Experiment/subject-9.csv",0,0,0,"a",50,50,"l","l",601.377599989064,601.377599989064,9,NA,416450.456400053,376451.995500014,176518.070599996,303300.628999947,417052.827900043,416142.596399994,19373.573299963,303371.872200049,NA,4747.05210002139,NA,298305.412500049,416149.795699981,415604.975000024,412239.465999999,294627.509100013,376547.189999954,220561.783100013,5514.27010004409,37014.8749999935,62833.9807000011,79525.2266000025,105364.517600043,109888.620999991,376547.461600043,417052.910499973,380076.732099988,271580.921899993,390616.536500049,NA,NA,297863.036500057,415303.733599954,295993.434999953,NA,NA,NA,NA,NA,376540.216700057,176517.892000033,220554.81640005,412239.393300028,294627.43610004,376451.930799987,376396.98900003,415599.617299973,4748.06440004613,416450.629399973,4748.09480004478,416142.516199965,176517.094800016,303367.506299983,303333.882499952,5497.18509998638,NA,NA,116416.592700058,18,174430.961599923,21,0,10,1,23,"Humanmedizin",5,3,3,3,3,3
86.3636363636364,96,7950.79606363486,"l","accuracy","bi1999ma","1","b","l","1","0","0",51,3,700,"Tue Mar 28 15:49:30 2023",0,"sehr leicht","accuracy","Experiment.osexp","Bild_s4_b_5.png",1080,"ma",1999,"bi","orangene","C:/Users/steff/Documents/Universität/Master Psychologie/SS 2022/Masterarbeit/Experiment/subject-9.csv",0,0,0,"a",55,55,"l","l",486.551800044253,486.551800044253,9,NA,418213.408699958,376451.995500014,176518.070599996,303300.628999947,418700.745800044,417905.550900032,19373.573299963,303371.872200049,NA,4747.05210002139,NA,298305.412500049,417912.727499963,417368.791799992,412239.465999999,294627.509100013,376547.189999954,220561.783100013,5514.27010004409,37014.8749999935,62833.9807000011,79525.2266000025,105364.517600043,109888.620999991,376547.461600043,418700.813899981,380076.732099988,271580.921899993,390616.536500049,NA,NA,297863.036500057,417067.935399944,295993.434999953,NA,NA,NA,NA,NA,376540.216700057,176517.892000033,220554.81640005,412239.393300028,294627.43610004,376451.930799987,376396.98900003,417363.442000002,4748.06440004613,418213.489899994,4748.09480004478,417905.46759998,176517.094800016,303367.506299983,303333.882499952,5497.18509998638,NA,NA,116416.592700058,19,174917.513399967,22,0,10,1,23,"Humanmedizin",5,3,3,3,3,3
86.9565217391304,96,7622.65106521385,"l","accuracy","bi1999ma","1","o","a","1","0","0",52,3,700,"Tue Mar 28 15:49:30 2023",0,"sehr leicht","accuracy","Experiment.osexp","Bild_s4_o_12.png",1080,"ma",1999,"bi","orangene","C:/Users/steff/Documents/Universität/Master Psychologie/SS 2022/Masterarbeit/Experiment/subject-9.csv",0,0,0,"a",60,60,"a","a",403.461099951528,403.461099951528,9,NA,419864.386199974,376451.995500014,176518.070599996,303300.628999947,420268.707399955,419556.418200023,19373.573299963,303371.872200049,NA,4747.05210002139,NA,298305.412500049,419563.725000015,419021.262299968,412239.465999999,294627.509100013,376547.189999954,220561.783100013,5514.27010004409,37014.8749999935,62833.9807000011,79525.2266000025,105364.517600043,109888.620999991,376547.461600043,420268.779300037,380076.732099988,271580.921899993,390616.536500049,NA,NA,297863.036500057,418720.709400019,295993.434999953,NA,NA,NA,NA,NA,376540.216700057,176517.892000033,220554.81640005,412239.393300028,294627.43610004,376451.930799987,376396.98900003,419015.930199996,4748.06440004613,419864.579600049,4748.09480004478,419556.337199989,176517.094800016,303367.506299983,303333.882499952,5497.18509998638,NA,NA,116416.592700058,20,175320.974499919,23,0,10,1,23,"Humanmedizin",5,3,3,3,3,3
87.5,96,7321.96325416347,"l","accuracy","bi1999ma","1","o","a","1","0","0",53,3,700,"Tue Mar 28 15:49:30 2023",0,"sehr leicht","accuracy","Experiment.osexp","Bild_s4_o_15.png",1080,"ma",1999,"bi","orangene","C:/Users/steff/Documents/Universität/Master Psychologie/SS 2022/Masterarbeit/Experiment/subject-9.csv",0,0,0,"a",65,65,"a","a",406.143600004725,406.143600004725,9,NA,421445.812099962,376451.995500014,176518.070599996,303300.628999947,421852.747999947,421137.970900047,19373.573299963,303371.872200049,NA,4747.05210002139,NA,298305.412500049,421145.260500023,420601.100799977,412239.465999999,294627.509100013,376547.189999954,220561.783100013,5514.27010004409,37014.8749999935,62833.9807000011,79525.2266000025,105364.517600043,109888.620999991,376547.461600043,421852.818000014,380076.732099988,271580.921899993,390616.536500049,NA,NA,297863.036500057,420300.541299977,295993.434999953,NA,NA,NA,NA,NA,376540.216700057,176517.892000033,220554.81640005,412239.393300028,294627.43610004,376451.930799987,376396.98900003,420595.720799989,4748.06440004613,421445.893099997,4748.09480004478,421137.892600033,176517.094800016,303367.506299983,303333.882499952,5497.18509998638,NA,NA,116416.592700058,21,175727.118099923,24,0,10,1,23,"Humanmedizin",5,3,3,3,3,3
88,96,7047.50348799396,"l","accuracy","bi1999ma","1","o","a","1","0","0",54,3,700,"Tue Mar 28 15:49:30 2023",0,"sehr leicht","accuracy","Experiment.osexp","Bild_s4_o_23.png",1080,"ma",1999,"bi","orangene","C:/Users/steff/Documents/Universität/Master Psychologie/SS 2022/Masterarbeit/Experiment/subject-9.csv",0,0,0,"a",70,70,"a","a",460.469099925831,460.469099925831,9,NA,423023.351300042,376451.995500014,176518.070599996,303300.628999947,423484.680499998,422715.438000043,19373.573299963,303371.872200049,NA,4747.05210002139,NA,298305.412500049,422722.710400005,422185.323999962,412239.465999999,294627.509100013,376547.189999954,220561.783100013,5514.27010004409,37014.8749999935,62833.9807000011,79525.2266000025,105364.517600043,109888.620999991,376547.461600043,423484.760600026,380076.732099988,271580.921899993,390616.536500049,NA,NA,297863.036500057,421884.750999976,295993.434999953,NA,NA,NA,NA,NA,376540.216700057,176517.892000033,220554.81640005,412239.393300028,294627.43610004,376451.930799987,376396.98900003,422179.93870005,4748.06440004613,423023.532900028,4748.09480004478,422715.356900007,176517.094800016,303367.506299983,303333.882499952,5497.18509998638,NA,NA,116416.592700058,22,176187.587199849,25,0,10,1,23,"Humanmedizin",5,3,3,3,3,3
88.4615384615385,96,6793.25196153234,"l","accuracy","bi1999ma","1","o","a","1","0","0",55,3,700,"Tue Mar 28 15:49:30 2023",0,"sehr leicht","accuracy","Experiment.osexp","Bild_s4_o_13.png",1080,"ma",1999,"bi","orangene","C:/Users/steff/Documents/Universität/Master Psychologie/SS 2022/Masterarbeit/Experiment/subject-9.csv",0,0,0,"a",75,75,"a","a",436.963799991645,436.963799991645,9,NA,424646.954800002,376451.995500014,176518.070599996,303300.628999947,425084.981100052,424339.324299945,19373.573299963,303371.872200049,NA,4747.05210002139,NA,298305.412500049,424346.401900053,423805.399399949,412239.465999999,294627.509100013,376547.189999954,220561.783100013,5514.27010004409,37014.8749999935,62833.9807000011,79525.2266000025,105364.517600043,109888.620999991,376547.461600043,425085.050699999,380076.732099988,271580.921899993,390616.536500049,NA,NA,297863.036500057,423504.897000035,295993.434999953,NA,NA,NA,NA,NA,376540.216700057,176517.892000033,220554.81640005,412239.393300028,294627.43610004,376451.930799987,376396.98900003,423800.027800025,4748.06440004613,424647.135699983,4748.09480004478,424339.245800045,176517.094800016,303367.506299983,303333.882499952,5497.18509998638,NA,NA,116416.592700058,23,176624.550999841,26,0,10,1,23,"Humanmedizin",5,3,3,3,3,3
88.8888888888889,96,6559.61373332388,"l","accuracy","bi1999ma","1","b","l","1","0","0",56,3,700,"Tue Mar 28 15:49:30 2023",0,"sehr leicht","accuracy","Experiment.osexp","Bild_s4_b_23.png",1080,"ma",1999,"bi","orangene","C:/Users/steff/Documents/Universität/Master Psychologie/SS 2022/Masterarbeit/Experiment/subject-9.csv",0,0,0,"a",80,80,"l","l",485.019799903966,485.019799903966,9,NA,426294.930099975,376451.995500014,176518.070599996,303300.628999947,426780.842600041,425986.855300027,19373.573299963,303371.872200049,NA,4747.05210002139,NA,298305.412500049,425993.780300021,425417.361199972,425490.771900048,294627.509100013,376547.189999954,220561.783100013,5514.27010004409,37014.8749999935,62833.9807000011,79525.2266000025,105364.517600043,109888.620999991,376547.461600043,426780.913199997,380076.732099988,271580.921899993,390616.536500049,NA,NA,297863.036500057,425116.806900012,295993.434999953,NA,NA,NA,NA,NA,376540.216700057,176517.892000033,220554.81640005,425490.700199967,294627.43610004,376451.930799987,376396.98900003,425412.03919996,4748.06440004613,426295.01500004,4748.09480004478,425986.773599987,176517.094800016,303367.506299983,303333.882499952,5497.18509998638,NA,NA,116416.592700058,24,177109.570799745,27,0,10,1,23,"Humanmedizin",5,3,3,3,3,3
89.2857142857143,96,6346.57633570688,"l","accuracy","bi1999ma","1","o","a","1","0","0",57,3,700,"Tue Mar 28 15:49:30 2023",0,"sehr leicht","accuracy","Experiment.osexp","Bild_s4_o_19.png",1080,"ma",1999,"bi","orangene","C:/Users/steff/Documents/Universität/Master Psychologie/SS 2022/Masterarbeit/Experiment/subject-9.csv",0,0,0,"a",85,85,"a","a",594.566600047983,594.566600047983,9,NA,427945.381599944,376451.995500014,176518.070599996,303300.628999947,428540.588999982,427637.650400051,19373.573299963,303371.872200049,NA,4747.05210002139,NA,298305.412500049,427644.979399978,427100.050100009,425490.771900048,294627.509100013,376547.189999954,220561.783100013,5514.27010004409,37014.8749999935,62833.9807000011,79525.2266000025,105364.517600043,109888.620999991,376547.461600043,428540.656700032,380076.732099988,271580.921899993,390616.536500049,NA,NA,297863.036500057,426799.348399974,295993.434999953,NA,NA,NA,NA,NA,376540.216700057,176517.892000033,220554.81640005,425490.700199967,294627.43610004,376451.930799987,376396.98900003,427094.79360003,4748.06440004613,427945.462499978,4748.09480004478,427637.570700026,176517.094800016,303367.506299983,303333.882499952,5497.18509998638,NA,NA,116416.592700058,25,177704.137399793,28,0,10,1,23,"Humanmedizin",5,3,3,3,3,3
86.2068965517241,96,6145.77837240609,"l","accuracy","bi1999ma","0","b","l","0","0","0",58,3,700,"Tue Mar 28 15:49:30 2023",0,"sehr leicht","accuracy","Experiment.osexp","Bild_s4_b_12.png",1080,"ma",1999,"bi","orangene","C:/Users/steff/Documents/Universität/Master Psychologie/SS 2022/Masterarbeit/Experiment/subject-9.csv",1,0,0,"a",75,75,"a","a",523.43539998401,523.43539998401,9,NA,429712.390700006,376451.995500014,176518.070599996,303300.628999947,430236.729600001,429404.655899969,19373.573299963,303371.872200049,NA,4747.05210002139,NA,298305.412500049,429411.844099988,428871.723899967,425490.771900048,294627.509100013,376547.189999954,220561.783100013,5514.27010004409,37014.8749999935,62833.9807000011,79525.2266000025,105364.517600043,109888.620999991,376547.461600043,430236.803799984,380076.732099988,271580.921899993,390616.536500049,NA,NA,297863.036500057,428571.499299956,295993.434999953,NA,NA,NA,NA,NA,376540.216700057,176517.892000033,220554.81640005,425490.700199967,294627.43610004,376451.930799987,376396.98900003,428866.390299983,4748.06440004613,429712.59260003,4748.09480004478,429404.577199952,176517.094800016,303367.506299983,303333.882499952,5497.18509998638,NA,NA,116416.592700058,25,178227.572799777,29,0,10,1,23,"Humanmedizin",5,3,3,3,3,3
86.6666666666667,96,5959.5062299942,"l","accuracy","bi1999ma","1","o","a","1","0","0",59,3,700,"Tue Mar 28 15:49:30 2023",0,"sehr leicht","accuracy","Experiment.osexp","Bild_s4_o_2.png",1080,"ma",1999,"bi","orangene","C:/Users/steff/Documents/Universität/Master Psychologie/SS 2022/Masterarbeit/Experiment/subject-9.csv",0,0,0,"a",80,80,"a","a",557.61410004925,557.61410004925,9,NA,431406.326800003,376451.995500014,176518.070599996,303300.628999947,431964.814699953,431097.787400009,19373.573299963,303371.872200049,NA,4747.05210002139,NA,298305.412500049,431104.706199956,430567.080399953,425490.771900048,294627.509100013,376547.189999954,220561.783100013,5514.27010004409,37014.8749999935,62833.9807000011,79525.2266000025,105364.517600043,109888.620999991,376547.461600043,431964.887500042,380076.732099988,271580.921899993,430266.597299953,NA,NA,297863.036500057,428571.499299956,295993.434999953,NA,NA,NA,NA,NA,376540.216700057,176517.892000033,220554.81640005,425490.700199967,294627.43610004,376451.930799987,376396.98900003,430561.766600003,4748.06440004613,431406.411999953,4748.09480004478,431097.70839999,176517.094800016,303367.506299983,303333.882499952,5497.18509998638,NA,NA,116416.592700058,26,178785.186899826,30,0,10,1,23,"Humanmedizin",5,3,3,3,3,3
87.0967741935484,96,5780.21253225574,"l","accuracy","bi1999ma","1","o","a","1","0","0",60,3,700,"Tue Mar 28 15:49:30 2023",0,"sehr leicht","accuracy","Experiment.osexp","Bild_s4_o_10.png",1080,"ma",1999,"bi","orangene","C:/Users/steff/Documents/Universität/Master Psychologie/SS 2022/Masterarbeit/Experiment/subject-9.csv",0,0,0,"a",85,85,"a","a",401.401600101963,401.401600101963,9,NA,433130.535500008,376451.995500014,176518.070599996,303300.628999947,433532.677300042,432822.849299992,19373.573299963,303371.872200049,NA,4747.05210002139,NA,298305.412500049,432829.943999997,432281.701299944,425490.771900048,294627.509100013,376547.189999954,220561.783100013,5514.27010004409,37014.8749999935,62833.9807000011,79525.2266000025,105364.517600043,109888.620999991,376547.461600043,433532.747599995,380076.732099988,271580.921899993,430266.597299953,NA,NA,297863.036500057,431981.009999989,295993.434999953,NA,NA,NA,NA,NA,376540.216700057,176517.892000033,220554.81640005,425490.700199967,294627.43610004,376451.930799987,376396.98900003,432276.304000057,4748.06440004613,433130.620299955,4748.09480004478,432822.770699975,176517.094800016,303367.506299983,303333.882499952,5497.18509998638,NA,NA,116416.592700058,27,179186.588499928,31,0,10,1,23,"Humanmedizin",5,3,3,3,3,3
87.5,96,5616.02872187359,"l","accuracy","bi1999ma","1","b","l","1","0","0",61,3,700,"Tue Mar 28 15:49:30 2023",0,"sehr leicht","accuracy","Experiment.osexp","Bild_s4_b_14.png",1080,"ma",1999,"bi","orangene","C:/Users/steff/Documents/Universität/Master Psychologie/SS 2022/Masterarbeit/Experiment/subject-9.csv",0,0,0,"a",90,90,"l","l",526.330600026995,526.330600026995,9,NA,434701.602400048,376451.995500014,176518.070599996,303300.628999947,435228.624399984,434393.708199961,19373.573299963,303371.872200049,NA,4747.05210002139,NA,298305.412500049,434400.943599991,433860.627199989,425490.771900048,294627.509100013,376547.189999954,220561.783100013,5514.27010004409,37014.8749999935,62833.9807000011,79525.2266000025,105364.517600043,109888.620999991,376547.461600043,435228.692400036,380076.732099988,271580.921899993,430266.597299953,NA,NA,297863.036500057,433559.547099983,295993.434999953,NA,NA,NA,NA,NA,376540.216700057,176517.892000033,220554.81640005,425490.700199967,294627.43610004,376451.930799987,376396.98900003,433855.342100025,4748.06440004613,434701.691200025,4748.09480004478,434393.630199949,176517.094800016,303367.506299983,303333.882499952,5497.18509998638,NA,NA,116416.592700058,28,179712.919099955,32,0,10,1,23,"Humanmedizin",5,3,3,3,3,3
84.8484848484848,96,5460.41252424193,"l","accuracy","bi1999ma","0","b","l","0","0","0",62,3,700,"Tue Mar 28 15:49:30 2023",0,"sehr leicht","accuracy","Experiment.osexp","Bild_s4_b_22.png",1080,"ma",1999,"bi","orangene","C:/Users/steff/Documents/Universität/Master Psychologie/SS 2022/Masterarbeit/Experiment/subject-9.csv",1,0,0,"a",80,80,"a","a",480.694200028665,480.694200028665,9,NA,436411.228199955,376451.995500014,176518.070599996,303300.628999947,436892.714599962,436102.697500028,19373.573299963,303371.872200049,NA,4747.05210002139,NA,298305.412500049,436109.860899975,435560.612099944,425490.771900048,294627.509100013,376547.189999954,220561.783100013,5514.27010004409,37014.8749999935,62833.9807000011,79525.2266000025,105364.517600043,109888.620999991,376547.461600043,436892.785500037,380076.732099988,271580.921899993,430266.597299953,NA,NA,297863.036500057,435260.232700035,295993.434999953,NA,NA,NA,NA,NA,376540.216700057,176517.892000033,220554.81640005,425490.700199967,294627.43610004,376451.930799987,376396.98900003,435555.368499947,4748.06440004613,436411.322499975,4748.09480004478,436102.612399962,176517.094800016,303367.506299983,303333.882499952,5497.18509998638,NA,NA,116416.592700058,28,180193.613299984,33,0,10,1,23,"Humanmedizin",5,3,3,3,3,3
85.2941176470588,96,5329.33458823519,"l","accuracy","bi1999ma","1","o","a","1","0","0",63,3,700,"Tue Mar 28 15:49:30 2023",0,"sehr leicht","accuracy","Experiment.osexp","Bild_s4_o_6.png",1080,"ma",1999,"bi","orangene","C:/Users/steff/Documents/Universität/Master Psychologie/SS 2022/Masterarbeit/Experiment/subject-9.csv",0,0,0,"a",85,85,"a","a",1003.76270001289,1003.76270001289,9,NA,438064.084899961,376451.995500014,176518.070599996,303300.628999947,439068.672199966,437756.515100016,19373.573299963,303371.872200049,NA,4747.05210002139,NA,298305.412500049,437763.523599948,437223.225399968,425490.771900048,294627.509100013,376547.189999954,220561.783100013,5514.27010004409,37014.8749999935,62833.9807000011,79525.2266000025,105364.517600043,109888.620999991,376547.461600043,439068.74779996,380076.732099988,271580.921899993,436922.287900001,NA,NA,297863.036500057,435260.232700035,295993.434999953,NA,NA,NA,NA,NA,376540.216700057,176517.892000033,220554.81640005,425490.700199967,294627.43610004,376451.930799987,376396.98900003,437217.549500056,4748.06440004613,438064.256499987,4748.09480004478,437756.437000004,176517.094800016,303367.506299983,303333.882499952,5497.18509998638,NA,NA,116416.592700058,29,181197.375999996,34,0,10,1,23,"Humanmedizin",5,3,3,3,3,3
85.7142857142857,96,5191.91663714259,"l","accuracy","bi1999ma","1","o","a","1","0","0",64,3,700,"Tue Mar 28 15:49:30 2023",1,"eher leicht","accuracy","Experiment.osexp","Bild_s3_o_25.png",1080,"ma",1999,"bi","orangene","C:/Users/steff/Documents/Universität/Master Psychologie/SS 2022/Masterarbeit/Experiment/subject-9.csv",0,0,0,"a",90,90,"a","a",519.706299994141,519.706299994141,9,NA,440276.226500049,376451.995500014,176518.070599996,303300.628999947,440796.722800005,439968.164499965,19373.573299963,303371.872200049,NA,4747.05210002139,NA,298305.412500049,439975.12930003,439398.152600043,439470.656599966,294627.509100013,376547.189999954,220561.783100013,5514.27010004409,37014.8749999935,62833.9807000011,79525.2266000025,105364.517600043,109888.620999991,376547.461600043,440796.794099966,380076.732099988,271580.921899993,436922.287900001,NA,NA,297863.036500057,439097.576700035,295993.434999953,NA,NA,NA,NA,NA,376540.216700057,176517.892000033,220554.81640005,439470.584099996,294627.43610004,376451.930799987,376396.98900003,439392.854999984,4748.06440004613,440276.312700007,4748.09480004478,439968.085000059,176517.094800016,303367.506299983,303333.882499952,5497.18509998638,NA,NA,116416.592700058,30,181717.082299991,35,0,10,1,23,"Humanmedizin",5,3,3,3,3,3
86.1111111111111,96,5058.83499722242,"l","accuracy","bi1999ma","1","o","a","1","0","0",65,3,700,"Tue Mar 28 15:49:30 2023",1,"eher leicht","accuracy","Experiment.osexp","Bild_s3_o_3.png",1080,"ma",1999,"bi","orangene","C:/Users/steff/Documents/Universität/Master Psychologie/SS 2022/Masterarbeit/Experiment/subject-9.csv",0,0,0,"a",95,95,"a","a",400.977600016631,400.977600016631,9,NA,441962.96569996,376451.995500014,176518.070599996,303300.628999947,442364.861899987,441655.092600035,19373.573299963,303371.872200049,NA,4747.05210002139,NA,298305.412500049,441661.900799954,441125.326500041,439470.656599966,294627.509100013,376547.189999954,220561.783100013,5514.27010004409,37014.8749999935,62833.9807000011,79525.2266000025,105364.517600043,109888.620999991,376547.461600043,442364.935599966,380076.732099988,271580.921899993,436922.287900001,NA,NA,297863.036500057,440824.628100032,295993.434999953,NA,NA,NA,NA,NA,376540.216700057,176517.892000033,220554.81640005,439470.584099996,294627.43610004,376451.930799987,376396.98900003,441119.924900006,4748.06440004613,441963.052100036,4748.09480004478,441655.01560003,176517.094800016,303367.506299983,303333.882499952,5497.18509998638,NA,NA,116416.592700058,31,182118.059900007,36,0,10,1,23,"Humanmedizin",5,3,3,3,3,3
86.4864864864865,96,4933.66558108214,"l","accuracy","bi1999ma","1","o","a","1","0","0",66,3,700,"Tue Mar 28 15:49:30 2023",1,"eher leicht","accuracy","Experiment.osexp","Bild_s3_o_21.png",1080,"ma",1999,"bi","orangene","C:/Users/steff/Documents/Universität/Master Psychologie/SS 2022/Masterarbeit/Experiment/subject-9.csv",0,0,0,"a",100,100,"a","a",427.566600032151,427.566600032151,9,NA,443520.290100016,376451.995500014,176518.070599996,303300.628999947,443948.708300013,443211.603499949,19373.573299963,303371.872200049,NA,4747.05210002139,NA,298305.412500049,443218.881799956,442685.922499979,439470.656599966,294627.509100013,376547.189999954,220561.783100013,5514.27010004409,37014.8749999935,62833.9807000011,79525.2266000025,105364.517600043,109888.620999991,376547.461600043,443948.778799968,380076.732099988,271580.921899993,436922.287900001,NA,NA,297863.036500057,442385.175999952,295993.434999953,NA,NA,NA,NA,NA,376540.216700057,176517.892000033,220554.81640005,439470.584099996,294627.43610004,376451.930799987,376396.98900003,442680.464199977,4748.06440004613,443520.454399986,4748.09480004478,443211.523300037,176517.094800016,303367.506299983,303333.882499952,5497.18509998638,NA,NA,116416.592700058,32,182545.626500039,37,0,10,1,23,"Humanmedizin",5,3,3,3,3,3
86.8421052631579,96,4817.48492105276,"l","accuracy","bi1999ma","1","b","l","1","0","0",67,3,700,"Tue Mar 28 15:49:30 2023",1,"eher leicht","accuracy","Experiment.osexp","Bild_s3_b_16.png",1080,"ma",1999,"bi","orangene","C:/Users/steff/Documents/Universität/Master Psychologie/SS 2022/Masterarbeit/Experiment/subject-9.csv",0,0,0,"a",105,105,"l","l",518.800499965437,518.800499965437,9,NA,445125.133499969,376451.995500014,176518.070599996,303300.628999947,445644.799100002,444817.104700021,19373.573299963,303371.872200049,NA,4747.05210002139,NA,298305.412500049,444824.459100026,444281.322699971,439470.656599966,294627.509100013,376547.189999954,220561.783100013,5514.27010004409,37014.8749999935,62833.9807000011,79525.2266000025,105364.517600043,109888.620999991,376547.461600043,445644.870099961,380076.732099988,271580.921899993,436922.287900001,NA,NA,297863.036500057,443980.161700048,295993.434999953,NA,NA,NA,NA,NA,376540.216700057,176517.892000033,220554.81640005,439470.584099996,294627.43610004,376451.930799987,376396.98900003,444275.994300027,4748.06440004613,445125.215600012,4748.09480004478,444817.026600009,176517.094800016,303367.506299983,303333.882499952,5497.18509998638,NA,NA,116416.592700058,33,183064.427000005,38,0,10,1,23,"Humanmedizin",5,3,3,3,3,3
87.1794871794872,96,4706.68850769289,"l","accuracy","bi1999ma","1","b","l","1","0","0",68,3,700,"Tue Mar 28 15:49:30 2023",1,"eher leicht","accuracy","Experiment.osexp","Bild_s3_b_14.png",1080,"ma",1999,"bi","orangene","C:/Users/steff/Documents/Universität/Master Psychologie/SS 2022/Masterarbeit/Experiment/subject-9.csv",0,0,0,"a",110,110,"l","l",496.424800017849,496.424800017849,9,NA,446811.510100029,376451.995500014,176518.070599996,303300.628999947,447308.847600012,446503.160299966,19373.573299963,303371.872200049,NA,4747.05210002139,NA,298305.412500049,446510.341800051,445965.004099999,439470.656599966,294627.509100013,376547.189999954,220561.783100013,5514.27010004409,37014.8749999935,62833.9807000011,79525.2266000025,105364.517600043,109888.620999991,376547.461600043,447308.920799987,380076.732099988,271580.921899993,436922.287900001,NA,NA,297863.036500057,445664.463300025,295993.434999953,NA,NA,NA,NA,NA,376540.216700057,176517.892000033,220554.81640005,439470.584099996,294627.43610004,376451.930799987,376396.98900003,445959.670300013,4748.06440004613,446811.598300003,4748.09480004478,446503.030500025,176517.094800016,303367.506299983,303333.882499952,5497.18509998638,NA,NA,116416.592700058,34,183560.851800023,39,0,10,1,23,"Humanmedizin",5,3,3,3,3,3
87.5,96,4601.18937499938,"l","accuracy","bi1999ma","1","b","l","1","0","0",69,3,700,"Tue Mar 28 15:49:30 2023",1,"eher leicht","accuracy","Experiment.osexp","Bild_s3_b_6.png",1080,"ma",1999,"bi","orangene","C:/Users/steff/Documents/Universität/Master Psychologie/SS 2022/Masterarbeit/Experiment/subject-9.csv",0,0,0,"a",115,115,"l","l",486.723199952394,486.723199952394,9,NA,448469.187099952,376451.995500014,176518.070599996,303300.628999947,448956.621999969,448161.256200052,19373.573299963,303371.872200049,NA,4747.05210002139,NA,298305.412500049,448168.149400037,447625.579199987,439470.656599966,294627.509100013,376547.189999954,220561.783100013,5514.27010004409,37014.8749999935,62833.9807000011,79525.2266000025,105364.517600043,109888.620999991,376547.461600043,448956.691100029,380076.732099988,271580.921899993,436922.287900001,NA,NA,297863.036500057,447324.837099994,295993.434999953,NA,NA,NA,NA,NA,376540.216700057,176517.892000033,220554.81640005,439470.584099996,294627.43610004,376451.930799987,376396.98900003,447620.298800059,4748.06440004613,448469.271500013,4748.09480004478,448161.177600035,176517.094800016,303367.506299983,303333.882499952,5497.18509998638,NA,NA,116416.592700058,35,184047.574999975,40,0,10,1,23,"Humanmedizin",5,3,3,3,3,3
87.8048780487805,96,4498.67846097275,"l","accuracy","bi1999ma","1","o","a","1","0","0",70,3,700,"Tue Mar 28 15:49:30 2023",1,"eher leicht","accuracy","Experiment.osexp","Bild_s3_o_22.png",1080,"ma",1999,"bi","orangene","C:/Users/steff/Documents/Universität/Master Psychologie/SS 2022/Masterarbeit/Experiment/subject-9.csv",0,0,0,"a",120,120,"a","a",398.241899907589,398.241899907589,9,NA,450125.687599997,376451.995500014,176518.070599996,303300.628999947,450525.046200026,449817.93619995,19373.573299963,303371.872200049,NA,4747.05210002139,NA,298305.412500049,449825.229899958,449269.235600019,439470.656599966,294627.509100013,376547.189999954,220561.783100013,5514.27010004409,37014.8749999935,62833.9807000011,79525.2266000025,105364.517600043,109888.620999991,376547.461600043,450525.156500051,380076.732099988,271580.921899993,436922.287900001,NA,NA,297863.036500057,448968.747899984,295993.434999953,NA,NA,NA,NA,NA,376540.216700057,176517.892000033,220554.81640005,439470.584099996,294627.43610004,376451.930799987,376396.98900003,449263.936399948,4748.06440004613,450125.770300045,4748.09480004478,449817.859099945,176517.094800016,303367.506299983,303333.882499952,5497.18509998638,NA,NA,116416.592700058,36,184445.816899883,41,0,10,1,23,"Humanmedizin",5,3,3,3,3,3
88.0952380952381,96,4412.33216666262,"l","accuracy","bi1999ma","1","b","l","1","0","0",71,3,700,"Tue Mar 28 15:49:30 2023",1,"eher leicht","accuracy","Experiment.osexp","Bild_s3_b_19.png",1080,"ma",1999,"bi","orangene","C:/Users/steff/Documents/Universität/Master Psychologie/SS 2022/Masterarbeit/Experiment/subject-9.csv",0,0,0,"a",125,125,"l","l",872.134099947289,872.134099947289,9,NA,451699.785299948,376451.995500014,176518.070599996,303300.628999947,452572.736299946,451391.803300008,19373.573299963,303371.872200049,NA,4747.05210002139,NA,298305.412500049,451398.732100031,450857.424900052,439470.656599966,294627.509100013,376547.189999954,220561.783100013,5514.27010004409,37014.8749999935,62833.9807000011,79525.2266000025,105364.517600043,109888.620999991,376547.461600043,452572.805000003,380076.732099988,271580.921899993,436922.287900001,NA,NA,297863.036500057,450556.838199962,295993.434999953,NA,NA,NA,NA,NA,376540.216700057,176517.892000033,220554.81640005,439470.584099996,294627.43610004,376451.930799987,376396.98900003,450852.066299994,4748.06440004613,451699.871500023,4748.09480004478,451391.724999994,176517.094800016,303367.506299983,303333.882499952,5497.18509998638,NA,NA,116416.592700058,37,185317.95099983,42,0,10,1,23,"Humanmedizin",5,3,3,3,3,3
88.3720930232558,96,4320.11832092715,"l","accuracy","bi1999ma","1","o","a","1","0","0",72,3,700,"Tue Mar 28 15:49:30 2023",0,"sehr leicht","accuracy","Experiment.osexp","Bild_s4_o_7.png",1080,"ma",1999,"bi","orangene","C:/Users/steff/Documents/Universität/Master Psychologie/SS 2022/Masterarbeit/Experiment/subject-9.csv",0,0,0,"a",130,130,"a","a",447.136800037697,447.136800037697,9,NA,453772.757100058,376451.995500014,176518.070599996,303300.628999947,454220.925100031,453464.928900008,19373.573299963,303371.872200049,NA,4747.05210002139,NA,298305.412500049,453471.838700003,452896.663799998,452968.63290004,294627.509100013,376547.189999954,220561.783100013,5514.27010004409,37014.8749999935,62833.9807000011,79525.2266000025,105364.517600043,109888.620999991,376547.461600043,454220.995499985,380076.732099988,271580.921899993,436922.287900001,NA,NA,297863.036500057,452596.080000047,295993.434999953,NA,NA,NA,NA,NA,376540.216700057,176517.892000033,220554.81640005,452968.558000051,294627.43610004,376451.930799987,376396.98900003,452891.256000032,4748.06440004613,453772.841500002,4748.09480004478,453464.85009999,176517.094800016,303367.506299983,303333.882499952,5497.18509998638,NA,NA,116416.592700058,38,185765.087799868,43,0,10,1,23,"Humanmedizin",5,3,3,3,3,3
88.6363636363636,96,4231.78420681506,"l","accuracy","bi1999ma","1","o","a","1","0","0",73,3,700,"Tue Mar 28 15:49:30 2023",0,"sehr leicht","accuracy","Experiment.osexp","Bild_s4_o_14.png",1080,"ma",1999,"bi","orangene","C:/Users/steff/Documents/Universität/Master Psychologie/SS 2022/Masterarbeit/Experiment/subject-9.csv",0,0,0,"a",135,135,"a","a",433.417299995199,433.417299995199,9,NA,455386.519900057,376451.995500014,176518.070599996,303300.628999947,455820.665000007,455078.544100048,19373.573299963,303371.872200049,NA,4747.05210002139,NA,298305.412500049,455085.450300016,454536.295600003,452968.63290004,294627.509100013,376547.189999954,220561.783100013,5514.27010004409,37014.8749999935,62833.9807000011,79525.2266000025,105364.517600043,109888.620999991,376547.461600043,455820.737199974,380076.732099988,271580.921899993,436922.287900001,NA,NA,297863.036500057,454234.926600009,295993.434999953,NA,NA,NA,NA,NA,376540.216700057,176517.892000033,220554.81640005,452968.558000051,294627.43610004,376451.930799987,376396.98900003,454530.976300011,4748.06440004613,455386.60930004,4748.09480004478,455078.464400023,176517.094800016,303367.506299983,303333.882499952,5497.18509998638,NA,NA,116416.592700058,39,186198.505099863,44,0,10,1,23,"Humanmedizin",5,3,3,3,3,3
88.8888888888889,96,4150.30342666174,"l","accuracy","bi1999ma","1","b","l","1","0","0",74,3,700,"Tue Mar 28 15:49:30 2023",0,"sehr leicht","accuracy","Experiment.osexp","Bild_s4_b_17.png",1080,"ma",1999,"bi","orangene","C:/Users/steff/Documents/Universität/Master Psychologie/SS 2022/Masterarbeit/Experiment/subject-9.csv",0,0,0,"a",140,140,"l","l",565.149099915288,565.149099915288,9,NA,456998.745499994,376451.995500014,176518.070599996,303300.628999947,457564.876500051,456690.989900031,19373.573299963,303371.872200049,NA,4747.05210002139,NA,298305.412500049,456697.844599956,456153.038199991,452968.63290004,294627.509100013,376547.189999954,220561.783100013,5514.27010004409,37014.8749999935,62833.9807000011,79525.2266000025,105364.517600043,109888.620999991,376547.461600043,457564.946400002,380076.732099988,271580.921899993,436922.287900001,NA,NA,297863.036500057,455852.416799986,295993.434999953,NA,NA,NA,NA,NA,376540.216700057,176517.892000033,220554.81640005,452968.558000051,294627.43610004,376451.930799987,376396.98900003,456147.702699993,4748.06440004613,456998.829900054,4748.09480004478,456690.860299976,176517.094800016,303367.506299983,303333.882499952,5497.18509998638,NA,NA,116416.592700058,40,186763.654199778,45,0,10,1,23,"Humanmedizin",5,3,3,3,3,3
89.1304347826087,96,4070.49605434092,"l","accuracy","bi1999ma","1","b","l","1","0","0",75,3,700,"Tue Mar 28 15:49:30 2023",0,"sehr leicht","accuracy","Experiment.osexp","Bild_s4_b_24.png",1080,"ma",1999,"bi","orangene","C:/Users/steff/Documents/Universität/Master Psychologie/SS 2022/Masterarbeit/Experiment/subject-9.csv",0,0,0,"a",145,145,"l","l",479.164299904369,479.164299904369,9,NA,458732.61289997,376451.995500014,176518.070599996,303300.628999947,459212.932000053,458424.215000006,19373.573299963,303371.872200049,NA,4747.05210002139,NA,298305.412500049,458431.495100027,457884.106899961,452968.63290004,294627.509100013,376547.189999954,220561.783100013,5514.27010004409,37014.8749999935,62833.9807000011,79525.2266000025,105364.517600043,109888.620999991,376547.461600043,459213.001900003,380076.732099988,271580.921899993,436922.287900001,NA,NA,297863.036500057,457582.819000003,295993.434999953,NA,NA,NA,NA,NA,376540.216700057,176517.892000033,220554.81640005,452968.558000051,294627.43610004,376451.930799987,376396.98900003,457878.763400018,4748.06440004613,458732.836700045,4748.09480004478,458424.137099995,176517.094800016,303367.506299983,303333.882499952,5497.18509998638,NA,NA,116416.592700058,41,187242.818499682,46,0,10,1,23,"Humanmedizin",5,3,3,3,3,3
89.3617021276596,96,3995.10667233312,"l","accuracy","bi1999ma","1","b","l","1","0","0",76,3,700,"Tue Mar 28 15:49:30 2023",0,"sehr leicht","accuracy","Experiment.osexp","Bild_s4_b_19.png",1080,"ma",1999,"bi","orangene","C:/Users/steff/Documents/Universität/Master Psychologie/SS 2022/Masterarbeit/Experiment/subject-9.csv",0,0,0,"a",150,150,"l","l",527.195099974051,527.195099974051,9,NA,460380.716299987,376451.995500014,176518.070599996,303300.628999947,460908.638700028,460072.749300045,19373.573299963,303371.872200049,NA,4747.05210002139,NA,298305.412500049,460079.650299973,459529.909400037,452968.63290004,294627.509100013,376547.189999954,220561.783100013,5514.27010004409,37014.8749999935,62833.9807000011,79525.2266000025,105364.517600043,109888.620999991,376547.461600043,460908.707899973,380076.732099988,271580.921899993,436922.287900001,NA,NA,297863.036500057,459229.217299959,295993.434999953,NA,NA,NA,NA,NA,376540.216700057,176517.892000033,220554.81640005,452968.558000051,294627.43610004,376451.930799987,376396.98900003,459524.643799989,4748.06440004613,460380.805599969,4748.09480004478,460072.672700044,176517.094800016,303367.506299983,303333.882499952,5497.18509998638,NA,NA,116416.592700058,42,187770.013599657,47,0,10,1,23,"Humanmedizin",5,3,3,3,3,3
89.5833333333333,96,3923.56509790746,"l","accuracy","bi1999ma","1","b","l","1","0","0",77,3,700,"Tue Mar 28 15:49:30 2023",0,"sehr leicht","accuracy","Experiment.osexp","Bild_s4_b_6.png",1080,"ma",1999,"bi","orangene","C:/Users/steff/Documents/Universität/Master Psychologie/SS 2022/Masterarbeit/Experiment/subject-9.csv",0,0,0,"a",155,155,"l","l",561.111099901609,561.111099901609,9,NA,462074.801299954,376451.995500014,176518.070599996,303300.628999947,462636.75439998,461766.704799957,19373.573299963,303371.872200049,NA,4747.05210002139,NA,298305.412500049,461773.629099946,461233.889600029,452968.63290004,294627.509100013,376547.189999954,220561.783100013,5514.27010004409,37014.8749999935,62833.9807000011,79525.2266000025,105364.517600043,109888.620999991,376547.461600043,462636.825500056,380076.732099988,271580.921899993,436922.287900001,NA,NA,297863.036500057,460933.290499961,295993.434999953,NA,NA,NA,NA,NA,376540.216700057,176517.892000033,220554.81640005,452968.558000051,294627.43610004,376451.930799987,376396.98900003,461228.500899975,4748.06440004613,462074.890600052,4748.09480004478,461766.627399949,176517.094800016,303367.506299983,303333.882499952,5497.18509998638,NA,NA,116416.592700058,43,188331.124699558,48,0,10,1,23,"Humanmedizin",5,3,3,3,3,3
89.7959183673469,96,3853.77988570408,"l","accuracy","bi1999ma","1","o","a","1","0","0",78,3,700,"Tue Mar 28 15:49:30 2023",0,"sehr leicht","accuracy","Experiment.osexp","Bild_s4_o_24.png",1080,"ma",1999,"bi","orangene","C:/Users/steff/Documents/Universität/Master Psychologie/SS 2022/Masterarbeit/Experiment/subject-9.csv",0,0,0,"a",160,160,"a","a",504.089699941687,504.089699941687,9,NA,463811.728000059,376451.995500014,176518.070599996,303300.628999947,464316.665800055,463503.878799966,19373.573299963,303371.872200049,NA,4747.05210002139,NA,298305.412500049,463510.967000038,462967.407600023,452968.63290004,294627.509100013,376547.189999954,220561.783100013,5514.27010004409,37014.8749999935,62833.9807000011,79525.2266000025,105364.517600043,109888.620999991,376547.461600043,464316.738800029,380076.732099988,271580.921899993,436922.287900001,NA,NA,297863.036500057,462666.446599993,295993.434999953,NA,NA,NA,NA,NA,376540.216700057,176517.892000033,220554.81640005,452968.558000051,294627.43610004,376451.930799987,376396.98900003,462962.087300024,4748.06440004613,463811.92040001,4748.09480004478,463503.799999948,176517.094800016,303367.506299983,303333.882499952,5497.18509998638,NA,NA,116416.592700058,44,188835.2143995,49,0,10,1,23,"Humanmedizin",5,3,3,3,3,3
90,96,3796.81284598773,"l","accuracy","bi1999ma","1","b","l","1","0","0",79,3,700,"Tue Mar 28 15:49:30 2023",0,"sehr leicht","accuracy","Experiment.osexp","Bild_s4_b_11.png",1080,"ma",1999,"bi","orangene","C:/Users/steff/Documents/Universität/Master Psychologie/SS 2022/Masterarbeit/Experiment/subject-9.csv",0,0,0,"a",165,165,"l","l",1005.42789988685,1005.42789988685,9,NA,465486.387099954,376451.995500014,176518.070599996,303300.628999947,466492.966699996,465177.908499958,19373.573299963,303371.872200049,NA,4747.05210002139,NA,298305.412500049,465185.226800037,464648.673300049,452968.63290004,294627.509100013,376547.189999954,220561.783100013,5514.27010004409,37014.8749999935,62833.9807000011,79525.2266000025,105364.517600043,109888.620999991,376547.461600043,466493.038999964,380076.732099988,271580.921899993,436922.287900001,NA,NA,297863.036500057,464347.836200031,295993.434999953,NA,NA,NA,NA,NA,376540.216700057,176517.892000033,220554.81640005,452968.558000051,294627.43610004,376451.930799987,376396.98900003,464643.17169995,4748.06440004613,465486.569000059,4748.09480004478,465177.826300031,176517.094800016,303367.506299983,303333.882499952,5497.18509998638,NA,NA,116416.592700058,45,189840.642299387,50,0,10,1,23,"Humanmedizin",5,3,3,3,3,3
100,96,8934.37874998199,"l","speed","bi1999ma","1","o","a","0","1","0",80,4,700,"Tue Mar 28 15:49:30 2023",0,"sehr leicht","accuracy","Experiment.osexp","Bild_s4_o_4.png",1080,"ma",1999,"bi","orangene","C:/Users/steff/Documents/Universität/Master Psychologie/SS 2022/Masterarbeit/Experiment/subject-9.csv",0,0,0,"a",170,5,"a","a",576.864999951795,576.864999951795,9,NA,490187.045400031,376451.995500014,176518.070599996,471947.734600049,490764.911800041,489878.918600036,19373.573299963,303371.872200049,NA,4747.05210002139,466952.365000034,298305.412500049,489885.838899994,466812.679699971,489357.747399947,294627.509100013,472063.972800039,220561.783100013,5514.27010004409,37014.8749999935,62833.9807000011,79525.2266000025,105364.517600043,109888.620999991,472064.088199986,490764.985800022,489356.89689999,271580.921899993,436922.287900001,NA,NA,297863.036500057,466511.886300053,295993.434999953,NA,NA,NA,NA,NA,472057.532100007,176517.892000033,220554.81640005,489357.703899965,294627.43610004,376451.930799987,376396.98900003,466807.2866,4748.06440004613,490187.132599996,4748.09480004478,489878.719500033,176517.094800016,303367.506299983,303333.882499952,5497.18509998638,NA,NA,116416.592700058,2,17868.757499964,2,0,175,1,23,"Humanmedizin",5,3,3,3,3,3
