"accuracy","anzahl_gruppen","avg_rt","blauetaste","block","code","correct","correct_colour","correct_response","correct1","correct2","correct3","count_bildstimulus_3_1","count_block","cutoff","datetime","difficulty","difficulty_f","erstebedingung","experiment_file","filename","height","id_geburtsort","id_jahr","id_vater","linketaste","logfile","loose1","loose2","loose3","orangenetaste","punkte1","punkteimblock","response","response_tasteresponse_3_1","response_time","response_time_tasteresponse_3_1","subject_nr","time_bildershuffle","time_bildstimulus_3_1","time_block","time_block_tut","time_blockwerte_zuruecksetzten","time_cutoff_werte_und_punkte_3_1","time_definecorrectcolour_3_1","time_eingabemaske_kuerzel_python","time_ende_tutorial_1","time_ende_experimentierungsphase","time_experiment","time_feedback_serie","time_feedback_tutorial","time_fixationcross_3_1","time_grauesbild_3_1","time_gruppe_block","time_gruppe_tutorial","time_instruktionen_block","time_instruktionen_tutorial_1","time_introduction_1","time_introduction_2_1","time_introduction_3_punkte","time_introduction_3_speed","time_introduction_4_accuracy","time_introduction_5_feedback","time_leertaste_fuer_naechsten_bildschirm","time_logger_3_1","time_loop_block","time_loop_block_tut","time_minifeedbacknegativ_acc","time_minifeedbacknegativ_speed_slow","time_minifeedbacknegativ_speed_slowandwrong","time_minifeedbacknegativ_speed_wrong","time_minifeedbackpositiv_acc","time_minifeedbackpositiv_speed","time_new_inline_script","time_pause_zwischen_serie_1","time_pause_zwischen_serie_2","time_reset_feedback","time_reset_feedback_1","time_sequenz_block","time_sequenz_block_tut","time_sequenz_block_tut_1","time_sequenz_gruppe","time_sequenz_gruppe_tut","time_sequenz_serie","time_serie","time_set_to_zero","time_start","time_tasteresponse_3_1","time_testloopprepareglitchtutorial","time_trial_3_1","time_tutorial","time_tutorial_ende","time_tutorial_wiederholungscheck","time_vorgeplaenkel","time_warnhinweis_3sek","time_warnhinweis_5sek","time_warnung_tutorial_1","total_correct","total_response_time","total_responses","tutorial","tutorialpunkte","geschlecht","alter","studiengang","bildungsabschluss","haendig1","haendig2","haendig3","haendig4","haendig_mean"
88.8888888888889,96,122646.163744386,"a","accuracy","mo1999tu","0","o","l","0","0","0",0,1,700,"Wed Apr 19 13:07:14 2023",3,"sehr schwer","accuracy","Experiment.osexp","Bild_s1_o_24.png",1080,"tu",1999,"mo","blaue","C:/Users/steff/Documents/Universität/Master Psychologie/SS 2022/Masterarbeit/Experiment/subject-15.csv",1,0,0,"l",-10,-10,"a","a",1114.84880000353,1114.84880000353,15,NA,296759.420000017,NA,280921.10699974,NA,297874.991099816,296451.746699866,51571.624299977,NA,NA,12218.194599729,NA,NA,296459.051999729,NA,NA,295924.044199754,NA,281019.061099738,13007.4452999979,71249.5299000293,90907.1702999063,125518.795299809,158522.585799918,224871.788799763,281019.170999993,297875.063299667,NA,295923.091199715,NA,NA,NA,NA,NA,NA,NA,NA,NA,NA,NA,NA,280920.916599687,281011.900799815,NA,295924.001999665,NA,NA,NA,12218.3071998879,296759.586599655,12218.330799602,296451.548799872,280920.097199734,NA,NA,12991.5852998383,NA,NA,246758.938499726,8,1103815.47369948,9,1,0,2,23,"Computer Science",6,1,1,1,1,1
80,96,110481.922449963,"a","accuracy","mo1999tu","0","o","l","0","0","0",1,1,700,"Wed Apr 19 13:07:14 2023",3,"sehr schwer","accuracy","Experiment.osexp","Bild_s1_o_15.png",1080,"tu",1999,"mo","blaue","C:/Users/steff/Documents/Universität/Master Psychologie/SS 2022/Masterarbeit/Experiment/subject-15.csv",1,0,0,"l",-20,-20,"a","a",1003.7508001551,1003.7508001551,15,NA,299046.604099683,NA,280921.10699974,NA,300051.049300004,298738.497099839,51571.624299977,NA,NA,12218.194599729,NA,NA,298745.443699881,298197.04579981,NA,295924.044199754,NA,281019.061099738,13007.4452999979,71249.5299000293,90907.1702999063,125518.795299809,158522.585799918,224871.788799763,281019.170999993,300051.120799966,NA,295923.091199715,297896.520499606,NA,NA,NA,NA,NA,NA,NA,NA,NA,NA,NA,280920.916599687,281011.900799815,NA,295924.001999665,NA,NA,298191.545499954,12218.3071998879,299046.712599695,12218.330799602,298738.420099951,280920.097199734,NA,NA,12991.5852998383,NA,NA,246758.938499726,8,1104819.22449963,10,1,0,2,23,"Computer Science",6,1,1,1,1,1
81.8181818181818,96,100552.054954481,"a","accuracy","mo1999tu","1","b","a","1","0","0",2,1,700,"Wed Apr 19 13:07:14 2023",2,"eher schwer","accuracy","Experiment.osexp","Bild_s2_b_2.png",1080,"tu",1999,"mo","blaue","C:/Users/steff/Documents/Universität/Master Psychologie/SS 2022/Masterarbeit/Experiment/subject-15.csv",0,0,0,"l",-15,-15,"a","a",1253.37999965996,1253.37999965996,15,NA,301260.957799852,NA,280921.10699974,NA,302515.075800009,300952.350499574,51571.624299977,NA,NA,12218.194599729,NA,NA,300959.287500009,300378.330799751,NA,300456.245499663,NA,281019.061099738,13007.4452999979,71249.5299000293,90907.1702999063,125518.795299809,158522.585799918,224871.788799763,281019.170999993,302515.146199614,NA,295923.091199715,300077.445099596,NA,NA,NA,NA,NA,NA,NA,NA,NA,NA,NA,280920.916599687,281011.900799815,NA,300456.170099787,NA,NA,300372.884099837,12218.3071998879,301261.090199929,12218.330799602,300952.270799782,280920.097199734,NA,NA,12991.5852998383,NA,NA,246758.938499726,9,1106072.60449929,11,1,0,2,23,"Computer Science",6,1,1,1,1,1
75,96,92259.7568666097,"a","accuracy","mo1999tu","0","b","a","0","0","0",3,1,700,"Wed Apr 19 13:07:14 2023",2,"eher schwer","accuracy","Experiment.osexp","Bild_s2_b_3.png",1080,"tu",1999,"mo","blaue","C:/Users/steff/Documents/Universität/Master Psychologie/SS 2022/Masterarbeit/Experiment/subject-15.csv",1,0,0,"l",-25,-25,"l","l",1044.4779000245,1044.4779000245,15,NA,303693.815599661,NA,280921.10699974,NA,304739.045099821,303385.399299674,51571.624299977,NA,NA,12218.194599729,NA,NA,303392.566099763,302843.703299761,NA,300456.245499663,NA,281019.061099738,13007.4452999979,71249.5299000293,90907.1702999063,125518.795299809,158522.585799918,224871.788799763,281019.170999993,304739.117200021,NA,295923.091199715,300077.445099596,NA,NA,NA,302543.160399888,NA,NA,NA,NA,NA,NA,NA,280920.916599687,281011.900799815,NA,300456.170099787,NA,NA,302838.384499773,12218.3071998879,303693.986499682,12218.330799602,303385.317399632,280920.097199734,NA,NA,12991.5852998383,NA,NA,246758.938499726,9,1107117.08239932,12,1,0,2,23,"Computer Science",6,1,1,1,1,1
76.9230769230769,96,85224.8079230507,"a","accuracy","mo1999tu","1","b","a","1","0","0",4,1,700,"Wed Apr 19 13:07:14 2023",1,"eher leicht","accuracy","Experiment.osexp","Bild_s3_b_14.png",1080,"tu",1999,"mo","blaue","C:/Users/steff/Documents/Universität/Master Psychologie/SS 2022/Masterarbeit/Experiment/subject-15.csv",0,0,0,"l",-20,-20,"a","a",805.420600343496,805.420600343496,15,NA,305932.9657997,NA,280921.10699974,NA,306738.899399992,305624.323699623,51571.624299977,NA,NA,12218.194599729,NA,NA,305631.423299666,305049.893899821,NA,305122.857799754,NA,281019.061099738,13007.4452999979,71249.5299000293,90907.1702999063,125518.795299809,158522.585799918,224871.788799763,281019.170999993,306738.968999591,NA,295923.091199715,304749.44339972,NA,NA,NA,302543.160399888,NA,NA,NA,NA,NA,NA,NA,280920.916599687,281011.900799815,NA,305122.78399989,NA,NA,305044.4747,12218.3071998879,305933.050399646,12218.330799602,305624.243099708,280920.097199734,NA,NA,12991.5852998383,NA,NA,246758.938499726,10,1107922.50299966,13,1,0,2,23,"Computer Science",6,1,1,1,1,1
78.5714285714286,96,79194.1730499467,"a","accuracy","mo1999tu","1","o","l","1","0","0",5,1,700,"Wed Apr 19 13:07:14 2023",1,"eher leicht","accuracy","Experiment.osexp","Bild_s3_o_12.png",1080,"tu",1999,"mo","blaue","C:/Users/steff/Documents/Universität/Master Psychologie/SS 2022/Masterarbeit/Experiment/subject-15.csv",0,0,0,"l",-15,-15,"l","l",795.919699594378,795.919699594378,15,NA,307910.360399634,NA,280921.10699974,NA,308706.934799906,307601.935299579,51571.624299977,NA,NA,12218.194599729,NA,NA,307608.998899814,307063.764399849,NA,305122.857799754,NA,281019.061099738,13007.4452999979,71249.5299000293,90907.1702999063,125518.795299809,158522.585799918,224871.788799763,281019.170999993,308707.004599739,NA,295923.091199715,304749.44339972,NA,NA,NA,306763.234399725,NA,NA,NA,NA,NA,NA,NA,280920.916599687,281011.900799815,NA,305122.78399989,NA,NA,307058.282999787,12218.3071998879,307910.535200033,12218.330799602,307601.852399763,280920.097199734,NA,NA,12991.5852998383,NA,NA,246758.938499726,11,1108718.42269925,14,1,0,2,23,"Computer Science",6,1,1,1,1,1
80,96,73959.4484466128,"a","accuracy","mo1999tu","1","o","l","1","0","0",6,1,700,"Wed Apr 19 13:07:14 2023",0,"sehr leicht","accuracy","Experiment.osexp","Bild_s4_o_7.png",1080,"tu",1999,"mo","blaue","C:/Users/steff/Documents/Universität/Master Psychologie/SS 2022/Masterarbeit/Experiment/subject-15.csv",0,0,0,"l",-10,-10,"l","l",673.303999938071,673.303999938071,15,NA,309905.068799853,NA,280921.10699974,NA,310578.937899787,309597.554999869,51571.624299977,NA,NA,12218.194599729,NA,NA,309604.350299574,309023.752199952,NA,309094.659399707,NA,281019.061099738,13007.4452999979,71249.5299000293,90907.1702999063,125518.795299809,158522.585799918,224871.788799763,281019.170999993,310579.008099623,NA,295923.091199715,304749.44339972,NA,NA,NA,308723.342099693,NA,NA,NA,NA,NA,NA,NA,280920.916599687,281011.900799815,NA,309094.587899745,NA,NA,309018.334100023,12218.3071998879,309905.146799982,12218.330799602,309597.472899593,280920.097199734,NA,NA,12991.5852998383,NA,NA,246758.938499726,12,1109391.72669919,15,1,0,2,23,"Computer Science",6,1,1,1,1,1
81.25,96,69370.0031624467,"a","accuracy","mo1999tu","1","b","a","1","0","0",7,1,700,"Wed Apr 19 13:07:14 2023",0,"sehr leicht","accuracy","Experiment.osexp","Bild_s4_b_9.png",1080,"tu",1999,"mo","blaue","C:/Users/steff/Documents/Universität/Master Psychologie/SS 2022/Masterarbeit/Experiment/subject-15.csv",0,0,0,"l",-5,-5,"a","a",528.323899954557,528.323899954557,15,NA,311745.956899598,NA,280921.10699974,NA,312275.049999822,311438.139399979,51571.624299977,NA,NA,12218.194599729,NA,NA,311445.151299704,310898.960900027,NA,309094.659399707,NA,281019.061099738,13007.4452999979,71249.5299000293,90907.1702999063,125518.795299809,158522.585799918,224871.788799763,281019.170999993,312275.1193,NA,295923.091199715,304749.44339972,NA,NA,NA,310598.323399667,NA,NA,NA,NA,NA,NA,NA,280920.916599687,281011.900799815,NA,309094.587899745,NA,NA,310893.603299744,12218.3071998879,311746.14599999,12218.330799602,311437.983899843,280920.097199734,NA,NA,12991.5852998383,NA,NA,246758.938499726,13,1109920.05059915,16,1,0,2,23,"Computer Science",6,1,1,1,1,1
82.3529411764706,96,65322.8609822964,"a","accuracy","mo1999tu","1","o","l","1","0","0",8,1,700,"Wed Apr 19 13:07:14 2023",0,"sehr leicht","accuracy","Experiment.osexp","Bild_s4_o_1.png",1080,"tu",1999,"mo","blaue","C:/Users/steff/Documents/Universität/Master Psychologie/SS 2022/Masterarbeit/Experiment/subject-15.csv",0,0,0,"l",0,0,"l","l",568.586099892855,568.586099892855,15,NA,313465.741899796,NA,280921.10699974,NA,314035.01969995,313157.667299733,51571.624299977,NA,NA,12218.194599729,NA,NA,313164.569799788,312595.877199899,NA,312669.400699902,NA,281019.061099738,13007.4452999979,71249.5299000293,90907.1702999063,125518.795299809,158522.585799918,224871.788799763,281019.170999993,314035.089700017,NA,295923.091199715,304749.44339972,NA,NA,NA,312295.529699884,NA,NA,NA,NA,NA,NA,NA,280920.916599687,281011.900799815,NA,312669.329599943,NA,NA,312590.437899809,12218.3071998879,313465.846499894,12218.330799602,313157.589199953,280920.097199734,NA,NA,12991.5852998383,NA,NA,246758.938499726,14,1110488.63669904,17,1,0,2,23,"Computer Science",6,1,1,1,1,1
83.3333333333333,96,61735.860077716,"a","accuracy","mo1999tu","1","o","l","1","0","0",9,1,700,"Wed Apr 19 13:07:14 2023",0,"sehr leicht","accuracy","Experiment.osexp","Bild_s4_o_2.png",1080,"tu",1999,"mo","blaue","C:/Users/steff/Documents/Universität/Master Psychologie/SS 2022/Masterarbeit/Experiment/subject-15.csv",0,0,0,"l",5,5,"l","l",756.844699848443,756.844699848443,15,NA,315213.5429997,NA,280921.10699974,NA,315971.104099881,314905.620399863,51571.624299977,NA,NA,12218.194599729,NA,NA,314912.494199816,314368.515699636,NA,312669.400699902,NA,281019.061099738,13007.4452999979,71249.5299000293,90907.1702999063,125518.795299809,158522.585799918,224871.788799763,281019.170999993,315971.173699945,NA,295923.091199715,304749.44339972,NA,NA,NA,314067.727799993,NA,NA,NA,NA,NA,NA,NA,280920.916599687,281011.900799815,NA,312669.329599943,NA,NA,314363.164299633,12218.3071998879,315213.627399877,12218.330799602,314905.538299587,280920.097199734,NA,NA,12991.5852998383,NA,NA,246758.938499726,15,1111245.48139889,18,1,0,2,23,"Computer Science",6,1,1,1,1,1
84.2105263157895,96,58521.8250315244,"a","accuracy","mo1999tu","1","b","a","1","0","0",10,1,700,"Wed Apr 19 13:07:14 2023",1,"eher leicht","accuracy","Experiment.osexp","Bild_s3_b_12.png",1080,"tu",1999,"mo","blaue","C:/Users/steff/Documents/Universität/Master Psychologie/SS 2022/Masterarbeit/Experiment/subject-15.csv",0,0,0,"l",10,10,"a","a",669.194200076163,669.194200076163,15,NA,317173.179099802,NA,280921.10699974,NA,317843.044699635,316865.048599895,51571.624299977,NA,NA,12218.194599729,NA,NA,316871.952999849,316292.066799942,NA,316362.503699958,NA,281019.061099738,13007.4452999979,71249.5299000293,90907.1702999063,125518.795299809,158522.585799918,224871.788799763,281019.170999993,317843.113699928,NA,295923.091199715,304749.44339972,NA,NA,NA,315991.008599754,NA,NA,NA,NA,NA,NA,NA,280920.916599687,281011.900799815,NA,316362.43139999,NA,NA,316286.634000018,12218.3071998879,317173.264199868,12218.330799602,316864.969299641,280920.097199734,NA,NA,12991.5852998383,NA,NA,246758.938499726,16,1111914.67559896,19,1,0,2,23,"Computer Science",6,1,1,1,1,1
85,96,55637.6027849503,"a","accuracy","mo1999tu","1","b","a","1","0","0",11,1,700,"Wed Apr 19 13:07:14 2023",1,"eher leicht","accuracy","Experiment.osexp","Bild_s3_b_9.png",1080,"tu",1999,"mo","blaue","C:/Users/steff/Documents/Universität/Master Psychologie/SS 2022/Masterarbeit/Experiment/subject-15.csv",0,0,0,"l",15,15,"a","a",837.380100041628,837.380100041628,15,NA,319021.009499673,NA,280921.10699974,NA,319859.050299972,318713.042799849,51571.624299977,NA,NA,12218.194599729,NA,NA,318720.330699813,318172.107399907,NA,316362.503699958,NA,281019.061099738,13007.4452999979,71249.5299000293,90907.1702999063,125518.795299809,158522.585799918,224871.788799763,281019.170999993,319859.121399932,NA,295923.091199715,304749.44339972,NA,NA,NA,317871.526199859,NA,NA,NA,NA,NA,NA,NA,280920.916599687,281011.900799815,NA,316362.43139999,NA,NA,318166.713099927,12218.3071998879,319021.087199915,12218.330799602,318712.949599605,280920.097199734,NA,NA,12991.5852998383,NA,NA,246758.938499726,17,1112752.05569901,20,1,0,2,23,"Computer Science",6,1,1,1,1,1
85.7142857142857,96,53027.7352427975,"a","accuracy","mo1999tu","1","o","l","1","0","0",12,1,700,"Wed Apr 19 13:07:14 2023",2,"eher schwer","accuracy","Experiment.osexp","Bild_s2_o_23.png",1080,"tu",1999,"mo","blaue","C:/Users/steff/Documents/Universität/Master Psychologie/SS 2022/Masterarbeit/Experiment/subject-15.csv",0,0,0,"l",20,20,"l","l",830.384399741888,830.384399741888,15,NA,321075.992499944,NA,280921.10699974,NA,321907.05979988,320768.308299594,51571.624299977,NA,NA,12218.194599729,NA,NA,320775.379699655,320187.455799896,NA,320260.395599995,NA,281019.061099738,13007.4452999979,71249.5299000293,90907.1702999063,125518.795299809,158522.585799918,224871.788799763,281019.170999993,321907.127199695,NA,295923.091199715,304749.44339972,NA,NA,NA,319887.110499665,NA,NA,NA,NA,NA,NA,NA,280920.916599687,281011.900799815,NA,320260.323499795,NA,NA,320182.051299606,12218.3071998879,321076.067999937,12218.330799602,320768.216699827,280920.097199734,NA,NA,12991.5852998383,NA,NA,246758.938499726,18,1113582.44009875,21,1,0,2,23,"Computer Science",6,1,1,1,1,1
81.8181818181818,96,50643.2976999574,"a","accuracy","mo1999tu","0","b","a","0","0","0",13,1,700,"Wed Apr 19 13:07:14 2023",2,"eher schwer","accuracy","Experiment.osexp","Bild_s2_b_11.png",1080,"tu",1999,"mo","blaue","C:/Users/steff/Documents/Universität/Master Psychologie/SS 2022/Masterarbeit/Experiment/subject-15.csv",1,0,0,"l",10,10,"l","l",570.10930031538,570.10930031538,15,NA,323064.249899704,NA,280921.10699974,NA,323635.028499644,322756.226900034,51571.624299977,NA,NA,12218.194599729,NA,NA,322763.132699765,322227.791899815,NA,320260.395599995,NA,281019.061099738,13007.4452999979,71249.5299000293,90907.1702999063,125518.795299809,158522.585799918,224871.788799763,281019.170999993,323635.100599844,NA,295923.091199715,304749.44339972,NA,NA,NA,321926.43659981,NA,NA,NA,NA,NA,NA,NA,280920.916599687,281011.900799815,NA,320260.323499795,NA,NA,322222.385999747,12218.3071998879,323064.338099677,12218.330799602,322756.147499662,280920.097199734,NA,NA,12991.5852998383,NA,NA,246758.938499726,18,1114152.54939906,22,1,0,2,23,"Computer Science",6,1,1,1,1,1
78.2608695652174,96,48468.4754782154,"a","accuracy","mo1999tu","0","o","l","0","0","0",14,1,700,"Wed Apr 19 13:07:14 2023",3,"sehr schwer","accuracy","Experiment.osexp","Bild_s1_o_1.png",1080,"tu",1999,"mo","blaue","C:/Users/steff/Documents/Universität/Master Psychologie/SS 2022/Masterarbeit/Experiment/subject-15.csv",1,0,0,"l",0,0,"a","a",622.386599890888,622.386599890888,15,NA,324851.961500011,NA,280921.10699974,NA,325475.062599871,324544.216999784,51571.624299977,NA,NA,12218.194599729,NA,NA,324551.265199669,323962.202799972,NA,324036.857799627,NA,281019.061099738,13007.4452999979,71249.5299000293,90907.1702999063,125518.795299809,158522.585799918,224871.788799763,281019.170999993,325475.130999926,NA,295923.091199715,323661.037100013,NA,NA,NA,321926.43659981,NA,NA,NA,NA,NA,NA,NA,280920.916599687,281011.900799815,NA,324036.787099671,NA,NA,323956.728499848,12218.3071998879,324852.041699924,12218.330799602,324544.131799601,280920.097199734,NA,NA,12991.5852998383,NA,NA,246758.938499726,18,1114774.93599895,23,1,0,2,23,"Computer Science",6,1,1,1,1,1
75,96,46476.1066624584,"a","accuracy","mo1999tu","0","b","a","0","0","0",15,1,700,"Wed Apr 19 13:07:14 2023",3,"sehr schwer","accuracy","Experiment.osexp","Bild_s1_b_25.png",1080,"tu",1999,"mo","blaue","C:/Users/steff/Documents/Universität/Master Psychologie/SS 2022/Masterarbeit/Experiment/subject-15.csv",1,0,0,"l",-10,-10,"l","l",651.623900048435,651.623900048435,15,NA,326630.680999719,NA,280921.10699974,NA,327283.061199822,326322.796599939,51571.624299977,NA,NA,12218.194599729,NA,NA,326329.86399997,325793.170099612,NA,324036.857799627,NA,281019.061099738,13007.4452999979,71249.5299000293,90907.1702999063,125518.795299809,158522.585799918,224871.788799763,281019.170999993,327283.129599877,NA,295923.091199715,325492.550199851,NA,NA,NA,321926.43659981,NA,NA,NA,NA,NA,NA,NA,280920.916599687,281011.900799815,NA,324036.787099671,NA,NA,325787.769099697,12218.3071998879,326630.816199817,12218.330799602,326322.717699688,280920.097199734,NA,NA,12991.5852998383,NA,NA,246758.938499726,18,1115426.559899,24,1,0,2,23,"Computer Science",6,1,1,1,1,1
100,96,2213.95240002312,"a","speed","mo1999tu","1","o","l","0","1","0",16,2,700,"Wed Apr 19 13:07:14 2023",3,"sehr schwer","accuracy","Experiment.osexp","Bild_s1_o_22.png",1080,"tu",1999,"mo","blaue","C:/Users/steff/Documents/Universität/Master Psychologie/SS 2022/Masterarbeit/Experiment/subject-15.csv",0,0,0,"l",-5,5,"l","l",520.152399782091,520.152399782091,15,NA,337610.160899814,NA,280921.10699974,332755.027899984,338130.913299974,337302.258299664,51571.624299977,NA,NA,12218.194599729,NA,327759.59429983,337309.1976,327610.568400007,NA,336787.971099839,NA,332878.581499681,13007.4452999979,71249.5299000293,90907.1702999063,125518.795299809,158522.585799918,224871.788799763,332878.697999753,338130.987799726,NA,336787.009699736,327309.955799952,NA,NA,NA,321926.43659981,NA,NA,NA,NA,NA,NA,NA,280920.916599687,332871.38050003,NA,336787.928699981,NA,NA,327605.090099853,12218.3071998879,337610.288199969,12218.330799602,337302.067899611,280920.097199734,NA,NA,12991.5852998383,NA,NA,246758.938499726,2,4427.90480004624,2,1,-10,2,23,"Computer Science",6,1,1,1,1,1
66.6666666666667,96,1603.20016664142,"a","speed","mo1999tu","0","b","a","0","0","0",17,2,700,"Wed Apr 19 13:07:14 2023",3,"sehr schwer","accuracy","Experiment.osexp","Bild_s1_b_8.png",1080,"tu",1999,"mo","blaue","C:/Users/steff/Documents/Universität/Master Psychologie/SS 2022/Masterarbeit/Experiment/subject-15.csv",0,1,0,"l",-15,-5,"l","l",381.695699878037,381.695699878037,15,NA,339300.576299895,NA,280921.10699974,332755.027899984,339682.940699626,338992.432700004,51571.624299977,NA,NA,12218.194599729,NA,327759.59429983,338999.765999615,338452.427599579,NA,336787.971099839,NA,332878.581499681,13007.4452999979,71249.5299000293,90907.1702999063,125518.795299809,158522.585799918,224871.788799763,332878.697999753,339683.034199756,NA,336787.009699736,327309.955799952,NA,NA,NA,321926.43659981,338151.721899863,NA,NA,NA,NA,NA,NA,280920.916599687,332871.38050003,NA,336787.928699981,NA,NA,338447.084899992,12218.3071998879,339300.746299792,12218.330799602,338992.352199741,280920.097199734,NA,NA,12991.5852998383,NA,NA,246758.938499726,2,4809.60049992427,3,1,-10,2,23,"Computer Science",6,1,1,1,1,1
75,96,1313.76499996986,"a","speed","mo1999tu","1","b","a","0","1","0",18,2,700,"Wed Apr 19 13:07:14 2023",2,"eher schwer","accuracy","Experiment.osexp","Bild_s2_b_1.png",1080,"tu",1999,"mo","blaue","C:/Users/steff/Documents/Universität/Master Psychologie/SS 2022/Masterarbeit/Experiment/subject-15.csv",0,0,0,"l",-10,0,"a","a",445.459499955177,445.459499955177,15,NA,340900.760499761,NA,280921.10699974,332755.027899984,341347.671099938,340591.176899616,51571.624299977,NA,NA,12218.194599729,NA,327759.59429983,340598.601199687,340013.247799594,NA,340085.934399627,NA,332878.581499681,13007.4452999979,71249.5299000293,90907.1702999063,125518.795299809,158522.585799918,224871.788799763,332878.697999753,341347.761999816,NA,336787.009699736,327309.955799952,NA,NA,339712.46109996,321926.43659981,338151.721899863,NA,NA,NA,NA,NA,NA,280920.916599687,332871.38050003,NA,340085.862199776,NA,NA,340007.616099901,12218.3071998879,340900.990999769,12218.330799602,340591.098099947,280920.097199734,NA,NA,12991.5852998383,NA,NA,246758.938499726,3,5255.05999987945,4,1,-10,2,23,"Computer Science",6,1,1,1,1,1
60,96,1162.2201600112,"a","speed","mo1999tu","0","o","l","0","0","0",19,2,700,"Wed Apr 19 13:07:14 2023",2,"eher schwer","accuracy","Experiment.osexp","Bild_s2_o_13.png",1080,"tu",1999,"mo","blaue","C:/Users/steff/Documents/Universität/Master Psychologie/SS 2022/Masterarbeit/Experiment/subject-15.csv",0,1,0,"l",-20,-10,"a","a",556.040800176561,556.040800176561,15,NA,342502.270099707,NA,280921.10699974,332755.027899984,343059.005299583,342194.378999993,51571.624299977,NA,NA,12218.194599729,NA,327759.59429983,342201.171000022,341672.862799838,NA,340085.934399627,NA,332878.581499681,13007.4452999979,71249.5299000293,90907.1702999063,125518.795299809,158522.585799918,224871.788799763,332878.697999753,343059.097599704,NA,336787.009699736,327309.955799952,NA,NA,339712.46109996,321926.43659981,341371.701799799,NA,NA,NA,NA,NA,NA,280920.916599687,332871.38050003,NA,340085.862199776,NA,NA,341667.352499906,12218.3071998879,342502.394799609,12218.330799602,342194.304799661,280920.097199734,NA,NA,12991.5852998383,NA,NA,246758.938499726,3,5811.10080005601,5,1,-10,2,23,"Computer Science",6,1,1,1,1,1
50,96,1043.24078334806,"a","speed","mo1999tu","0","b","a","0","0","0",20,2,700,"Wed Apr 19 13:07:14 2023",1,"eher leicht","accuracy","Experiment.osexp","Bild_s3_b_21.png",1080,"tu",1999,"mo","blaue","C:/Users/steff/Documents/Universität/Master Psychologie/SS 2022/Masterarbeit/Experiment/subject-15.csv",0,1,0,"l",-30,-20,"l","l",448.343900032341,448.343900032341,15,NA,344242.035399657,NA,280921.10699974,332755.027899984,344690.939099994,343934.070699848,51571.624299977,NA,NA,12218.194599729,NA,327759.59429983,343940.849099774,343373.830999713,NA,343444.299599621,NA,332878.581499681,13007.4452999979,71249.5299000293,90907.1702999063,125518.795299809,158522.585799918,224871.788799763,332878.697999753,344691.043499857,NA,336787.009699736,327309.955799952,NA,NA,343073.04209983,321926.43659981,341371.701799799,NA,NA,NA,NA,NA,NA,280920.916599687,332871.38050003,NA,343444.228499662,NA,NA,343368.415299803,12218.3071998879,344242.118199822,12218.330799602,343933.987999801,280920.097199734,NA,NA,12991.5852998383,NA,NA,246758.938499726,3,6259.44470008835,6,1,-10,2,23,"Computer Science",6,1,1,1,1,1
57.1428571428571,96,985.404742881656,"a","speed","mo1999tu","1","o","l","0","1","0",21,2,700,"Wed Apr 19 13:07:14 2023",1,"eher leicht","accuracy","Experiment.osexp","Bild_s3_o_2.png",1080,"tu",1999,"mo","blaue","C:/Users/steff/Documents/Universität/Master Psychologie/SS 2022/Masterarbeit/Experiment/subject-15.csv",0,0,0,"l",-25,-15,"l","l",638.388500083238,638.388500083238,15,NA,345859.888299834,NA,280921.10699974,332755.027899984,346499.034799635,345551.753399894,51571.624299977,NA,NA,12218.194599729,NA,327759.59429983,345558.931699954,345006.260599941,NA,343444.299599621,NA,332878.581499681,13007.4452999979,71249.5299000293,90907.1702999063,125518.795299809,158522.585799918,224871.788799763,332878.697999753,346499.104299583,NA,336787.009699736,327309.955799952,NA,NA,344705.298099667,321926.43659981,341371.701799799,NA,NA,NA,NA,NA,NA,280920.916599687,332871.38050003,NA,343444.228499662,NA,NA,345000.857299659,12218.3071998879,345860.02489971,12218.330799602,345551.664399914,280920.097199734,NA,NA,12991.5852998383,NA,NA,246758.938499726,4,6897.83320017159,7,1,-10,2,23,"Computer Science",6,1,1,1,1,1
62.5,96,913.356187520549,"a","speed","mo1999tu","1","b","a","0","1","0",22,2,700,"Wed Apr 19 13:07:14 2023",0,"sehr leicht","accuracy","Experiment.osexp","Bild_s4_b_12.png",1080,"tu",1999,"mo","blaue","C:/Users/steff/Documents/Universität/Master Psychologie/SS 2022/Masterarbeit/Experiment/subject-15.csv",0,0,0,"l",-20,-10,"a","a",409.0162999928,409.0162999928,15,NA,347705.218499992,NA,280921.10699974,332755.027899984,348114.99459995,347397.109299898,51571.624299977,NA,NA,12218.194599729,NA,327759.59429983,347404.259999748,346815.145999659,NA,346890.435499605,NA,332878.581499681,13007.4452999979,71249.5299000293,90907.1702999063,125518.795299809,158522.585799918,224871.788799763,332878.697999753,348115.06749969,NA,336787.009699736,327309.955799952,NA,NA,344705.298099667,321926.43659981,346514.214799739,NA,NA,NA,NA,NA,NA,280920.916599687,332871.38050003,NA,346890.361899976,NA,NA,346809.538899921,12218.3071998879,347705.43129975,12218.330799602,347397.026199847,280920.097199734,NA,NA,12991.5852998383,NA,NA,246758.938499726,5,7306.84950016439,8,1,-10,2,23,"Computer Science",6,1,1,1,1,1
66.6666666666667,96,870.956744481292,"a","speed","mo1999tu","1","o","l","0","1","0",23,2,700,"Wed Apr 19 13:07:14 2023",0,"sehr leicht","accuracy","Experiment.osexp","Bild_s4_o_24.png",1080,"tu",1999,"mo","blaue","C:/Users/steff/Documents/Universität/Master Psychologie/SS 2022/Masterarbeit/Experiment/subject-15.csv",0,0,0,"l",-15,-5,"l","l",531.761200167239,531.761200167239,15,NA,349294.476399664,NA,280921.10699974,332755.027899984,349826.985399704,348986.607299652,51571.624299977,NA,NA,12218.194599729,NA,327759.59429983,348993.833599612,348443.078499753,NA,346890.435499605,NA,332878.581499681,13007.4452999979,71249.5299000293,90907.1702999063,125518.795299809,158522.585799918,224871.788799763,332878.697999753,349827.058000024,NA,336787.009699736,327309.955799952,NA,NA,344705.298099667,321926.43659981,348142.449199688,NA,NA,NA,NA,NA,NA,280920.916599687,332871.38050003,NA,346890.361899976,NA,NA,348437.522499822,12218.3071998879,349294.663699809,12218.330799602,348986.524599604,280920.097199734,NA,NA,12991.5852998383,NA,NA,246758.938499726,6,7838.61070033163,9,1,-10,2,23,"Computer Science",6,1,1,1,1,1
70,96,845.59149001725,"a","speed","mo1999tu","1","o","l","0","1","0",24,2,700,"Wed Apr 19 13:07:14 2023",0,"sehr leicht","accuracy","Experiment.osexp","Bild_s4_o_6.png",1080,"tu",1999,"mo","blaue","C:/Users/steff/Documents/Universität/Master Psychologie/SS 2022/Masterarbeit/Experiment/subject-15.csv",0,0,0,"l",-10,0,"l","l",617.304199840873,617.304199840873,15,NA,351032.925399952,NA,280921.10699974,332755.027899984,351651.126299985,350724.845299963,51571.624299977,NA,NA,12218.194599729,NA,327759.59429983,350731.952199712,350146.315499675,NA,350215.632699896,NA,332878.581499681,13007.4452999979,71249.5299000293,90907.1702999063,125518.795299809,158522.585799918,224871.788799763,332878.697999753,351651.199599728,NA,336787.009699736,327309.955799952,NA,NA,344705.298099667,321926.43659981,349845.89909995,NA,NA,NA,NA,NA,NA,280920.916599687,332871.38050003,NA,350215.557599906,NA,NA,350140.914799646,12218.3071998879,351033.115999773,12218.330799602,350724.765999708,280920.097199734,NA,NA,12991.5852998383,NA,NA,246758.938499726,7,8455.9149001725,10,1,-10,2,23,"Computer Science",6,1,1,1,1,1
63.6363636363636,96,812.00215453282,"a","speed","mo1999tu","0","o","l","0","0","0",25,2,700,"Wed Apr 19 13:07:14 2023",0,"sehr leicht","accuracy","Experiment.osexp","Bild_s4_o_21.png",1080,"tu",1999,"mo","blaue","C:/Users/steff/Documents/Universität/Master Psychologie/SS 2022/Masterarbeit/Experiment/subject-15.csv",0,1,0,"l",-20,-10,"a","a",476.108799688518,476.108799688518,15,NA,352822.140099946,NA,280921.10699974,332755.027899984,353299.000099767,352514.292699751,51571.624299977,NA,NA,12218.194599729,NA,327759.59429983,352521.504399832,351966.15919983,NA,350215.632699896,NA,332878.581499681,13007.4452999979,71249.5299000293,90907.1702999063,125518.795299809,158522.585799918,224871.788799763,332878.697999753,353299.093799666,NA,336787.009699736,327309.955799952,NA,NA,344705.298099667,321926.43659981,351665.740999859,NA,NA,NA,NA,NA,NA,280920.916599687,332871.38050003,NA,350215.557599906,NA,NA,351960.736199748,12218.3071998879,352822.316200007,12218.330799602,352514.20039963,280920.097199734,NA,NA,12991.5852998383,NA,NA,246758.938499726,7,8932.02369986102,11,1,-10,2,23,"Computer Science",6,1,1,1,1,1
58.3333333333333,96,785.345716634765,"a","speed","mo1999tu","0","o","l","0","0","0",26,2,700,"Wed Apr 19 13:07:14 2023",1,"eher leicht","accuracy","Experiment.osexp","Bild_s3_o_1.png",1080,"tu",1999,"mo","blaue","C:/Users/steff/Documents/Universität/Master Psychologie/SS 2022/Masterarbeit/Experiment/subject-15.csv",0,1,0,"l",-30,-20,"a","a",492.124899756163,492.124899756163,15,NA,354518.10689969,NA,280921.10699974,332755.027899984,355011.005299632,354209.40990001,51571.624299977,NA,NA,12218.194599729,NA,327759.59429983,354216.677599587,353626.524999738,NA,353700.990699697,NA,332878.581499681,13007.4452999979,71249.5299000293,90907.1702999063,125518.795299809,158522.585799918,224871.788799763,332878.697999753,355011.098099872,NA,336787.009699736,327309.955799952,NA,NA,353325.869599823,321926.43659981,351665.740999859,NA,NA,NA,NA,NA,NA,280920.916599687,332871.38050003,NA,353700.916899834,NA,NA,353620.994399767,12218.3071998879,354518.282799982,12218.330799602,354209.327299614,280920.097199734,NA,NA,12991.5852998383,NA,NA,246758.938499726,7,9424.14859961718,12,1,-10,2,23,"Computer Science",6,1,1,1,1,1
61.5384615384615,96,770.467346140112,"a","speed","mo1999tu","1","o","l","0","1","0",27,2,700,"Wed Apr 19 13:07:14 2023",1,"eher leicht","accuracy","Experiment.osexp","Bild_s3_o_10.png",1080,"tu",1999,"mo","blaue","C:/Users/steff/Documents/Universität/Master Psychologie/SS 2022/Masterarbeit/Experiment/subject-15.csv",0,0,0,"l",-25,-15,"l","l",591.926900204271,591.926900204271,15,NA,356178.303299937,NA,280921.10699974,332755.027899984,356771.030399948,355869.379299693,51571.624299977,NA,NA,12218.194599729,NA,327759.59429983,355876.397499815,355321.440899745,NA,353700.990699697,NA,332878.581499681,13007.4452999979,71249.5299000293,90907.1702999063,125518.795299809,158522.585799918,224871.788799763,332878.697999753,356771.104499698,NA,336787.009699736,327309.955799952,NA,NA,355020.604099613,321926.43659981,351665.740999859,NA,NA,NA,NA,NA,NA,280920.916599687,332871.38050003,NA,353700.916899834,NA,NA,355315.950699616,12218.3071998879,356178.501099814,12218.330799602,355869.298500009,280920.097199734,NA,NA,12991.5852998383,NA,NA,246758.938499726,8,10016.0754998215,13,1,-10,2,23,"Computer Science",6,1,1,1,1,1
64.2857142857143,96,749.537878570014,"a","speed","mo1999tu","1","b","a","0","1","0",28,2,700,"Wed Apr 19 13:07:14 2023",2,"eher schwer","accuracy","Experiment.osexp","Bild_s2_b_24.png",1080,"tu",1999,"mo","blaue","C:/Users/steff/Documents/Universität/Master Psychologie/SS 2022/Masterarbeit/Experiment/subject-15.csv",0,0,0,"l",-20,-10,"a","a",477.454800158739,477.454800158739,15,NA,357988.788899966,NA,280921.10699974,332755.027899984,358466.988299973,357680.731599685,51571.624299977,NA,NA,12218.194599729,NA,327759.59429983,357687.96039978,357099.221199751,NA,357171.565099619,NA,332878.581499681,13007.4452999979,71249.5299000293,90907.1702999063,125518.795299809,158522.585799918,224871.788799763,332878.697999753,358467.061799951,NA,336787.009699736,327309.955799952,NA,NA,355020.604099613,321926.43659981,356798.591299914,NA,NA,NA,NA,NA,NA,280920.916599687,332871.38050003,NA,357171.494599897,NA,NA,357093.71889988,12218.3071998879,357988.955199718,12218.330799602,357680.64529961,280920.097199734,NA,NA,12991.5852998383,NA,NA,246758.938499726,9,10493.5302999802,14,1,-10,2,23,"Computer Science",6,1,1,1,1,1
66.6666666666667,96,752.675533325722,"a","speed","mo1999tu","1","b","a","0","0","1",29,2,700,"Wed Apr 19 13:07:14 2023",2,"eher schwer","accuracy","Experiment.osexp","Bild_s2_b_10.png",1080,"tu",1999,"mo","blaue","C:/Users/steff/Documents/Universität/Master Psychologie/SS 2022/Masterarbeit/Experiment/subject-15.csv",0,0,0,"l",-30,-20,"a","a",796.602699905634,796.602699905634,15,NA,359637.631299905,NA,280921.10699974,332755.027899984,360435.0317996,359329.733399674,51571.624299977,NA,NA,12218.194599729,NA,327759.59429983,359336.946699768,358782.889199909,NA,357171.565099619,NA,332878.581499681,13007.4452999979,71249.5299000293,90907.1702999063,125518.795299809,158522.585799918,224871.788799763,332878.697999753,360435.127999633,NA,336787.009699736,327309.955799952,NA,NA,355020.604099613,321926.43659981,358481.538599823,NA,NA,NA,NA,NA,NA,280920.916599687,332871.38050003,NA,357171.494599897,NA,NA,358777.335399762,12218.3071998879,359637.817899697,12218.330799602,359329.651799984,280920.097199734,NA,NA,12991.5852998383,NA,NA,246758.938499726,10,11290.1329998858,15,1,-10,2,23,"Computer Science",6,1,1,1,1,1
62.5,96,735.674818744883,"a","speed","mo1999tu","0","o","l","0","0","0",30,2,700,"Wed Apr 19 13:07:14 2023",3,"sehr schwer","accuracy","Experiment.osexp","Bild_s1_o_20.png",1080,"tu",1999,"mo","blaue","C:/Users/steff/Documents/Universität/Master Psychologie/SS 2022/Masterarbeit/Experiment/subject-15.csv",0,1,0,"l",-40,-30,"a","a",480.6641000323,480.6641000323,15,NA,361649.571099784,NA,280921.10699974,332755.027899984,362130.960599985,361341.093000025,51571.624299977,NA,NA,12218.194599729,NA,327759.59429983,361348.413299769,360760.725799948,NA,360833.89879996,NA,332878.581499681,13007.4452999979,71249.5299000293,90907.1702999063,125518.795299809,158522.585799918,224871.788799763,332878.697999753,362131.056599785,NA,336787.009699736,327309.955799952,360459.997799713,NA,355020.604099613,321926.43659981,358481.538599823,NA,NA,NA,NA,NA,NA,280920.916599687,332871.38050003,NA,360833.826099988,NA,NA,360755.238099955,12218.3071998879,361649.746499956,12218.330799602,361340.938999783,280920.097199734,NA,NA,12991.5852998383,NA,NA,246758.938499726,10,11770.7970999181,16,1,-10,2,23,"Computer Science",6,1,1,1,1,1
58.8235294117647,96,717.055317644468,"a","speed","mo1999tu","0","o","l","0","0","0",31,2,700,"Wed Apr 19 13:07:14 2023",3,"sehr schwer","accuracy","Experiment.osexp","Bild_s1_o_16.png",1080,"tu",1999,"mo","blaue","C:/Users/steff/Documents/Universität/Master Psychologie/SS 2022/Masterarbeit/Experiment/subject-15.csv",0,1,0,"l",-50,-40,"a","a",419.143300037831,419.143300037831,15,NA,363311.186200008,NA,280921.10699974,332755.027899984,363731.134799775,363002.940799575,51571.624299977,NA,NA,12218.194599729,NA,327759.59429983,363010.061000008,362457.13320002,NA,360833.89879996,NA,332878.581499681,13007.4452999979,71249.5299000293,90907.1702999063,125518.795299809,158522.585799918,224871.788799763,332878.697999753,363731.234099716,NA,336787.009699736,327309.955799952,360459.997799713,NA,362156.533399597,321926.43659981,358481.538599823,NA,NA,NA,NA,NA,NA,280920.916599687,332871.38050003,NA,360833.826099988,NA,NA,362451.673499774,12218.3071998879,363311.288199853,12218.330799602,363002.858599648,280920.097199734,NA,NA,12991.5852998383,NA,NA,246758.938499726,10,12189.940399956,17,1,-10,2,23,"Computer Science",6,1,1,1,1,1
100,96,3385.46460005455,"a","accuracy","mo1999tu","1","b","a","1","0","0",32,3,700,"Wed Apr 19 13:07:14 2023",3,"sehr schwer","accuracy","Experiment.osexp","Bild_s1_b_7.png",1080,"tu",1999,"mo","blaue","C:/Users/steff/Documents/Universität/Master Psychologie/SS 2022/Masterarbeit/Experiment/subject-15.csv",0,0,0,"l",-45,5,"a","a",1048.75040007755,1048.75040007755,15,NA,375865.475699771,NA,369250.955799595,369183.388699777,376914.855199866,375557.211000007,51571.624299977,NA,NA,12218.194599729,NA,364187.816799618,375564.191399608,364046.932099853,NA,375060.102399904,NA,369336.100599729,13007.4452999979,71249.5299000293,90907.1702999063,125518.795299809,158522.585799918,224871.788799763,369336.24019986,376914.925499819,NA,375059.243599884,327309.955799952,360459.997799713,NA,363746.153599583,321926.43659981,358481.538599823,NA,NA,NA,NA,NA,NA,369250.885299873,369329.1578996,NA,375060.065399855,NA,NA,364041.474399623,12218.3071998879,375865.582499653,12218.330799602,375556.998400018,280920.097199734,NA,369216.992799658,12991.5852998383,NA,NA,246758.938499726,2,6770.92920010909,2,1,-50,2,23,"Computer Science",6,1,1,1,1,1
100,96,2718.57826675599,"a","accuracy","mo1999tu","1","o","l","1","0","0",33,3,700,"Wed Apr 19 13:07:14 2023",3,"sehr schwer","accuracy","Experiment.osexp","Bild_s1_o_6.png",1080,"tu",1999,"mo","blaue","C:/Users/steff/Documents/Universität/Master Psychologie/SS 2022/Masterarbeit/Experiment/subject-15.csv",0,0,0,"l",-40,10,"l","l",1384.80560015887,1384.80560015887,15,NA,378089.433199726,NA,369250.955799595,369183.388699777,379474.925599992,377781.633100007,51571.624299977,NA,NA,12218.194599729,NA,364187.816799618,377788.812499959,377234.35609974,NA,375060.102399904,NA,369336.100599729,13007.4452999979,71249.5299000293,90907.1702999063,125518.795299809,158522.585799918,224871.788799763,369336.24019986,379474.993199576,NA,375059.243599884,327309.955799952,360459.997799713,NA,363746.153599583,376933.902399614,358481.538599823,NA,NA,NA,NA,NA,NA,369250.885299873,369329.1578996,NA,375060.065399855,NA,NA,377228.902800009,12218.3071998879,378089.593399782,12218.330799602,377781.553299632,280920.097199734,NA,369216.992799658,12991.5852998383,NA,NA,246758.938499726,3,8155.73480026796,3,1,-50,2,23,"Computer Science",6,1,1,1,1,1
100,96,2390.78382507432,"a","accuracy","mo1999tu","1","o","l","1","0","0",34,3,700,"Wed Apr 19 13:07:14 2023",2,"eher schwer","accuracy","Experiment.osexp","Bild_s2_o_23.png",1080,"tu",1999,"mo","blaue","C:/Users/steff/Documents/Universität/Master Psychologie/SS 2022/Masterarbeit/Experiment/subject-15.csv",0,0,0,"l",-35,15,"l","l",1407.40050002933,1407.40050002933,15,NA,380674.890999682,NA,369250.955799595,369183.388699777,382082.972100005,380366.413699929,51571.624299977,NA,NA,12218.194599729,NA,364187.816799618,380373.571399599,379791.645799764,NA,379863.177699968,NA,369336.100599729,13007.4452999979,71249.5299000293,90907.1702999063,125518.795299809,158522.585799918,224871.788799763,369336.24019986,382083.042699844,NA,375059.243599884,327309.955799952,360459.997799713,NA,363746.153599583,379490.290899761,358481.538599823,NA,NA,NA,NA,NA,NA,369250.885299873,369329.1578996,NA,379863.105199765,NA,NA,379786.053000018,12218.3071998879,380674.996499904,12218.330799602,380366.33119965,280920.097199734,NA,369216.992799658,12991.5852998383,NA,NA,246758.938499726,4,9563.13530029729,4,1,-50,2,23,"Computer Science",6,1,1,1,1,1
100,96,2092.27020004764,"a","accuracy","mo1999tu","1","b","a","1","0","0",35,3,700,"Wed Apr 19 13:07:14 2023",2,"eher schwer","accuracy","Experiment.osexp","Bild_s2_b_24.png",1080,"tu",1999,"mo","blaue","C:/Users/steff/Documents/Universität/Master Psychologie/SS 2022/Masterarbeit/Experiment/subject-15.csv",0,0,0,"l",-30,20,"a","a",898.21569994092,898.21569994092,15,NA,383264.102399815,NA,369250.955799595,369183.388699777,384162.927599624,382956.090799998,51571.624299977,NA,NA,12218.194599729,NA,364187.816799618,382963.426799979,382410.977100022,NA,379863.177699968,NA,369336.100599729,13007.4452999979,71249.5299000293,90907.1702999063,125518.795299809,158522.585799918,224871.788799763,369336.24019986,384162.993799895,NA,375059.243599884,327309.955799952,360459.997799713,NA,363746.153599583,382110.308599658,358481.538599823,NA,NA,NA,NA,NA,NA,369250.885299873,369329.1578996,NA,379863.105199765,NA,NA,382405.482899863,12218.3071998879,383264.180399943,12218.330799602,382956.011399627,280920.097199734,NA,369216.992799658,12991.5852998383,NA,NA,246758.938499726,5,10461.3510002382,5,1,-50,2,23,"Computer Science",6,1,1,1,1,1
100,96,1871.29545002244,"a","accuracy","mo1999tu","1","o","l","1","0","0",36,3,700,"Wed Apr 19 13:07:14 2023",1,"eher leicht","accuracy","Experiment.osexp","Bild_s3_o_7.png",1080,"tu",1999,"mo","blaue","C:/Users/steff/Documents/Universität/Master Psychologie/SS 2022/Masterarbeit/Experiment/subject-15.csv",0,0,0,"l",-25,25,"l","l",766.421699896455,766.421699896455,15,NA,385363.897499628,NA,369250.955799595,369183.388699777,386130.988499615,385056.362899952,51571.624299977,NA,NA,12218.194599729,NA,364187.816799618,385063.263899647,384473.981800023,NA,384550.890999846,NA,369336.100599729,13007.4452999979,71249.5299000293,90907.1702999063,125518.795299809,158522.585799918,224871.788799763,369336.24019986,386131.056699902,NA,375059.243599884,327309.955799952,360459.997799713,NA,363746.153599583,384173.608099576,358481.538599823,NA,NA,NA,NA,NA,NA,369250.885299873,369329.1578996,NA,384550.817999989,NA,NA,384468.647999689,12218.3071998879,385363.975099754,12218.330799602,385056.282300036,280920.097199734,NA,369216.992799658,12991.5852998383,NA,NA,246758.938499726,6,11227.7727001347,6,1,-50,2,23,"Computer Science",6,1,1,1,1,1
100,96,1717.93834292995,"a","accuracy","mo1999tu","1","b","a","1","0","0",37,3,700,"Wed Apr 19 13:07:14 2023",1,"eher leicht","accuracy","Experiment.osexp","Bild_s3_b_3.png",1080,"tu",1999,"mo","blaue","C:/Users/steff/Documents/Universität/Master Psychologie/SS 2022/Masterarbeit/Experiment/subject-15.csv",0,0,0,"l",-20,30,"a","a",797.795700374991,797.795700374991,15,NA,387284.523199778,NA,369250.955799595,369183.388699777,388083.010299597,386976.523699705,51571.624299977,NA,NA,12218.194599729,NA,364187.816799618,386983.297099825,386459.063099697,NA,384550.890999846,NA,369336.100599729,13007.4452999979,71249.5299000293,90907.1702999063,125518.795299809,158522.585799918,224871.788799763,369336.24019986,388083.081000019,NA,375059.243599884,327309.955799952,360459.997799713,NA,363746.153599583,386158.557499759,358481.538599823,NA,NA,NA,NA,NA,NA,369250.885299873,369329.1578996,NA,384550.817999989,NA,NA,386453.795499634,12218.3071998879,387284.605699591,12218.330799602,386976.446999703,280920.097199734,NA,369216.992799658,12991.5852998383,NA,NA,246758.938499726,7,12025.5684005097,7,1,-50,2,23,"Computer Science",6,1,1,1,1,1
100,96,1610.35522504244,"a","accuracy","mo1999tu","1","b","a","1","0","0",38,3,700,"Wed Apr 19 13:07:14 2023",0,"sehr leicht","accuracy","Experiment.osexp","Bild_s4_b_14.png",1080,"tu",1999,"mo","blaue","C:/Users/steff/Documents/Universität/Master Psychologie/SS 2022/Masterarbeit/Experiment/subject-15.csv",0,0,0,"l",-15,35,"a","a",857.273399829865,857.273399829865,15,NA,389289.002100006,NA,369250.955799595,369183.388699777,390146.945499815,388981.394999661,51571.624299977,NA,NA,12218.194599729,NA,364187.816799618,388988.005599938,388401.938299648,NA,388475.05929973,NA,369336.100599729,13007.4452999979,71249.5299000293,90907.1702999063,125518.795299809,158522.585799918,224871.788799763,369336.24019986,390147.013499867,NA,375059.243599884,327309.955799952,360459.997799713,NA,363746.153599583,388101.398999803,358481.538599823,NA,NA,NA,NA,NA,NA,369250.885299873,369329.1578996,NA,388474.987499882,NA,NA,388396.436499897,12218.3071998879,389289.082599804,12218.330799602,388981.319000013,280920.097199734,NA,369216.992799658,12991.5852998383,NA,NA,246758.938499726,8,12882.8418003395,8,1,-50,2,23,"Computer Science",6,1,1,1,1,1
100,96,1503.39874444116,"a","accuracy","mo1999tu","1","o","l","1","0","0",39,3,700,"Wed Apr 19 13:07:14 2023",0,"sehr leicht","accuracy","Experiment.osexp","Bild_s4_o_12.png",1080,"tu",1999,"mo","blaue","C:/Users/steff/Documents/Universität/Master Psychologie/SS 2022/Masterarbeit/Experiment/subject-15.csv",0,0,0,"l",-10,40,"l","l",647.746899630874,647.746899630874,15,NA,391322.481099982,NA,369250.955799595,369183.388699777,391971.014899667,391014.308399986,51571.624299977,NA,NA,12218.194599729,NA,364187.816799618,391021.661799867,390471.418599598,NA,388475.05929973,NA,369336.100599729,13007.4452999979,71249.5299000293,90907.1702999063,125518.795299809,158522.585799918,224871.788799763,369336.24019986,391971.082999837,NA,375059.243599884,327309.955799952,360459.997799713,NA,363746.153599583,390170.436599758,358481.538599823,NA,NA,NA,NA,NA,NA,369250.885299873,369329.1578996,NA,388474.987499882,NA,NA,390465.951999649,12218.3071998879,391322.661099955,12218.330799602,391014.142399654,280920.097199734,NA,369216.992799658,12991.5852998383,NA,NA,246758.938499726,9,13530.5886999704,9,1,-50,2,23,"Computer Science",6,1,1,1,1,1
100,96,1427.83103999682,"a","accuracy","mo1999tu","1","o","l","1","0","0",40,3,700,"Wed Apr 19 13:07:14 2023",0,"sehr leicht","accuracy","Experiment.osexp","Bild_s4_o_22.png",1080,"tu",1999,"mo","blaue","C:/Users/steff/Documents/Universität/Master Psychologie/SS 2022/Masterarbeit/Experiment/subject-15.csv",0,0,0,"l",-5,45,"l","l",747.721699997783,747.721699997783,15,NA,393190.49920002,NA,369250.955799595,369183.388699777,393938.945499714,392882.548399735,51571.624299977,NA,NA,12218.194599729,NA,364187.816799618,392889.684299938,392301.385799889,NA,392372.696799692,NA,369336.100599729,13007.4452999979,71249.5299000293,90907.1702999063,125518.795299809,158522.585799918,224871.788799763,369336.24019986,393939.011199865,NA,375059.243599884,327309.955799952,360459.997799713,NA,363746.153599583,392000.68049971,358481.538599823,NA,NA,NA,NA,NA,NA,369250.885299873,369329.1578996,NA,392372.622299939,NA,NA,392295.990099665,12218.3071998879,393190.673099831,12218.330799602,392882.469099946,280920.097199734,NA,369216.992799658,12991.5852998383,NA,NA,246758.938499726,10,14278.3103999682,10,1,-50,2,23,"Computer Science",6,1,1,1,1,1
100,96,1398.8390636461,"a","accuracy","mo1999tu","1","o","l","1","0","0",41,3,700,"Wed Apr 19 13:07:14 2023",0,"sehr leicht","accuracy","Experiment.osexp","Bild_s4_o_3.png",1080,"tu",1999,"mo","blaue","C:/Users/steff/Documents/Universität/Master Psychologie/SS 2022/Masterarbeit/Experiment/subject-15.csv",0,0,0,"l",0,50,"l","l",1108.91930013895,1108.91930013895,15,NA,395117.312499788,NA,369250.955799595,369183.388699777,396226.950199809,394809.447299689,51571.624299977,NA,NA,12218.194599729,NA,364187.816799618,394816.681299824,394258.432499599,NA,392372.696799692,NA,369336.100599729,13007.4452999979,71249.5299000293,90907.1702999063,125518.795299809,158522.585799918,224871.788799763,369336.24019986,396227.01839963,NA,375059.243599884,327309.955799952,360459.997799713,NA,363746.153599583,393957.99279958,358481.538599823,NA,NA,NA,NA,NA,NA,369250.885299873,369329.1578996,NA,392372.622299939,NA,NA,394252.953599673,12218.3071998879,395117.478099652,12218.330799602,394809.364199638,280920.097199734,NA,369216.992799658,12991.5852998383,NA,NA,246758.938499726,11,15387.2297001071,11,1,-50,2,23,"Computer Science",6,1,1,1,1,1
100,96,1330.68454164701,"a","accuracy","mo1999tu","1","b","a","1","0","0",42,3,700,"Wed Apr 19 13:07:14 2023",1,"eher leicht","accuracy","Experiment.osexp","Bild_s3_b_7.png",1080,"tu",1999,"mo","blaue","C:/Users/steff/Documents/Universität/Master Psychologie/SS 2022/Masterarbeit/Experiment/subject-15.csv",0,0,0,"l",5,55,"a","a",580.984799657017,580.984799657017,15,NA,397437.227599788,NA,369250.955799595,369183.388699777,398018.990899902,397127.775299828,51571.624299977,NA,NA,12218.194599729,NA,364187.816799618,397134.999800008,396546.622099821,NA,396617.348099593,NA,369336.100599729,13007.4452999979,71249.5299000293,90907.1702999063,125518.795299809,158522.585799918,224871.788799763,369336.24019986,398019.058799837,NA,375059.243599884,327309.955799952,360459.997799713,NA,363746.153599583,396245.96769968,358481.538599823,NA,NA,NA,NA,NA,NA,369250.885299873,369329.1578996,NA,396617.27529997,NA,NA,396541.17059987,12218.3071998879,397437.393500004,12218.330799602,397127.692000009,280920.097199734,NA,369216.992799658,12991.5852998383,NA,NA,246758.938499726,12,15968.2144997641,12,1,-50,2,23,"Computer Science",6,1,1,1,1,1
100,96,1321.78905384185,"a","accuracy","mo1999tu","1","b","a","1","0","0",43,3,700,"Wed Apr 19 13:07:14 2023",1,"eher leicht","accuracy","Experiment.osexp","Bild_s3_b_24.png",1080,"tu",1999,"mo","blaue","C:/Users/steff/Documents/Universität/Master Psychologie/SS 2022/Masterarbeit/Experiment/subject-15.csv",0,0,0,"l",10,60,"a","a",1215.04320017993,1215.04320017993,15,NA,399203.25729996,NA,369250.955799595,369183.388699777,400418.999599759,398894.687599968,51571.624299977,NA,NA,12218.194599729,NA,364187.816799618,398901.938399766,398347.290599719,NA,396617.348099593,NA,369336.100599729,13007.4452999979,71249.5299000293,90907.1702999063,125518.795299809,158522.585799918,224871.788799763,369336.24019986,400419.067399576,NA,375059.243599884,327309.955799952,360459.997799713,NA,363746.153599583,398046.600099653,358481.538599823,NA,NA,NA,NA,NA,NA,369250.885299873,369329.1578996,NA,396617.27529997,NA,NA,398341.869699769,12218.3071998879,399203.337799758,12218.330799602,398894.606999587,280920.097199734,NA,369216.992799658,12991.5852998383,NA,NA,246758.938499726,13,17183.2576999441,13,1,-50,2,23,"Computer Science",6,1,1,1,1,1
100,96,1328.79068572739,"a","accuracy","mo1999tu","1","b","a","1","0","0",44,3,700,"Wed Apr 19 13:07:14 2023",2,"eher schwer","accuracy","Experiment.osexp","Bild_s2_b_17.png",1080,"tu",1999,"mo","blaue","C:/Users/steff/Documents/Universität/Master Psychologie/SS 2022/Masterarbeit/Experiment/subject-15.csv",0,0,0,"l",15,65,"a","a",1419.81190023944,1419.81190023944,15,NA,401654.366599862,NA,369250.955799595,369183.388699777,403075.031499844,401346.564000007,51571.624299977,NA,NA,12218.194599729,NA,364187.816799618,401353.624699637,400759.509399999,NA,400836.230099667,NA,369336.100599729,13007.4452999979,71249.5299000293,90907.1702999063,125518.795299809,158522.585799918,224871.788799763,369336.24019986,403075.099799782,NA,375059.243599884,327309.955799952,360459.997799713,NA,363746.153599583,400458.419999573,358481.538599823,NA,NA,NA,NA,NA,NA,369250.885299873,369329.1578996,NA,400836.155999918,NA,NA,400753.90379969,12218.3071998879,401654.563999735,12218.330799602,401346.430199686,280920.097199734,NA,369216.992799658,12991.5852998383,NA,NA,246758.938499726,14,18603.0696001835,14,1,-50,2,23,"Computer Science",6,1,1,1,1,1
100,96,1307.8506333443,"a","accuracy","mo1999tu","1","o","l","1","0","0",45,3,700,"Wed Apr 19 13:07:14 2023",2,"eher schwer","accuracy","Experiment.osexp","Bild_s2_o_24.png",1080,"tu",1999,"mo","blaue","C:/Users/steff/Documents/Universität/Master Psychologie/SS 2022/Masterarbeit/Experiment/subject-15.csv",0,0,0,"l",20,70,"l","l",1014.68989998102,1014.68989998102,15,NA,404251.653899904,NA,369250.955799595,369183.388699777,405267.09839981,403941.202200018,51571.624299977,NA,NA,12218.194599729,NA,364187.816799618,403950.597799849,403393.911499996,NA,400836.230099667,NA,369336.100599729,13007.4452999979,71249.5299000293,90907.1702999063,125518.795299809,158522.585799918,224871.788799763,369336.24019986,405267.166799866,NA,375059.243599884,327309.955799952,360459.997799713,NA,363746.153599583,403093.238499947,358481.538599823,NA,NA,NA,NA,NA,NA,369250.885299873,369329.1578996,NA,400836.155999918,NA,NA,403388.441099785,12218.3071998879,404251.737799961,12218.330799602,403941.054899711,280920.097199734,NA,369216.992799658,12991.5852998383,NA,NA,246758.938499726,15,19617.7595001645,15,1,-50,2,23,"Computer Science",6,1,1,1,1,1
100,96,1331.02952499758,"a","accuracy","mo1999tu","1","b","a","1","0","0",46,3,700,"Wed Apr 19 13:07:14 2023",3,"sehr schwer","accuracy","Experiment.osexp","Bild_s1_b_18.png",1080,"tu",1999,"mo","blaue","C:/Users/steff/Documents/Universität/Master Psychologie/SS 2022/Masterarbeit/Experiment/subject-15.csv",0,0,0,"l",25,75,"a","a",1678.71289979666,1678.71289979666,15,NA,406483.635899611,NA,369250.955799595,369183.388699777,408163.263799623,406175.576199777,51571.624299977,NA,NA,12218.194599729,NA,364187.816799618,406182.841300033,405595.536199864,NA,405669.119499624,NA,369336.100599729,13007.4452999979,71249.5299000293,90907.1702999063,125518.795299809,158522.585799918,224871.788799763,369336.24019986,408163.330699783,NA,375059.243599884,327309.955799952,360459.997799713,NA,363746.153599583,405294.883899856,358481.538599823,NA,NA,NA,NA,NA,NA,369250.885299873,369329.1578996,NA,405669.047199655,NA,NA,405590.075299609,12218.3071998879,406483.71489998,12218.330799602,406175.497399643,280920.097199734,NA,369216.992799658,12991.5852998383,NA,NA,246758.938499726,16,21296.4723999612,16,1,-50,2,23,"Computer Science",6,1,1,1,1,1
100,96,1336.03127059691,"a","accuracy","mo1999tu","1","o","l","1","0","0",47,3,700,"Wed Apr 19 13:07:14 2023",3,"sehr schwer","accuracy","Experiment.osexp","Bild_s1_o_16.png",1080,"tu",1999,"mo","blaue","C:/Users/steff/Documents/Universität/Master Psychologie/SS 2022/Masterarbeit/Experiment/subject-15.csv",0,0,0,"l",30,80,"l","l",1416.05920018628,1416.05920018628,15,NA,409338.145699818,NA,369250.955799595,369183.388699777,410755.04259998,409029.572699685,51571.624299977,NA,NA,12218.194599729,NA,364187.816799618,409036.804699805,408489.474699832,NA,405669.119499624,NA,369336.100599729,13007.4452999979,71249.5299000293,90907.1702999063,125518.795299809,158522.585799918,224871.788799763,369336.24019986,410755.112299696,NA,375059.243599884,327309.955799952,360459.997799713,NA,363746.153599583,408188.75500001,358481.538599823,NA,NA,NA,NA,NA,NA,369250.885299873,369329.1578996,NA,405669.047199655,NA,NA,408483.946399763,12218.3071998879,409338.315399829,12218.330799602,409029.494999908,280920.097199734,NA,369216.992799658,12991.5852998383,NA,NA,246758.938499726,17,22712.5316001475,17,1,-50,2,23,"Computer Science",6,1,1,1,1,1
100,96,1579.61359992623,"a","speed","mo1999tu","1","o","l","0","1","0",48,4,700,"Wed Apr 19 13:07:14 2023",3,"sehr schwer","accuracy","Experiment.osexp","Bild_s1_o_7.png",1080,"tu",1999,"mo","blaue","C:/Users/steff/Documents/Universität/Master Psychologie/SS 2022/Masterarbeit/Experiment/subject-15.csv",0,0,0,"l",35,5,"l","l",649.158400017768,649.158400017768,15,NA,419657.105699647,NA,369250.955799595,416217.331499793,420307.228999678,419349.03189959,51571.624299977,NA,NA,12218.194599729,NA,411222.138999961,419356.007099617,411082.913700026,NA,418852.082499769,NA,416340.158799663,13007.4452999979,71249.5299000293,90907.1702999063,125518.795299809,158522.585799918,224871.788799763,416340.31479992,420307.3409996,NA,418851.205799729,327309.955799952,360459.997799713,NA,363746.153599583,410782.25679975,358481.538599823,NA,NA,NA,NA,NA,NA,369250.885299873,416333.118899725,NA,418852.043499705,NA,NA,411077.53259968,12218.3071998879,419657.201699913,12218.330799602,419348.827499896,280920.097199734,NA,369216.992799658,12991.5852998383,NA,NA,246758.938499726,2,3159.22719985247,2,1,30,2,23,"Computer Science",6,1,1,1,1,1
100,96,1267.69886662563,"a","speed","mo1999tu","1","o","l","0","1","0",49,4,700,"Wed Apr 19 13:07:14 2023",3,"sehr schwer","accuracy","Experiment.osexp","Bild_s1_o_1.png",1080,"tu",1999,"mo","blaue","C:/Users/steff/Documents/Universität/Master Psychologie/SS 2022/Masterarbeit/Experiment/subject-15.csv",0,0,0,"l",40,10,"l","l",643.869400024414,643.869400024414,15,NA,421470.428499859,NA,369250.955799595,416217.331499793,422114.941699896,421162.59339964,51571.624299977,NA,NA,12218.194599729,NA,411222.138999961,421169.354599901,420630.917700007,NA,418852.082499769,NA,416340.158799663,13007.4452999979,71249.5299000293,90907.1702999063,125518.795299809,158522.585799918,224871.788799763,416340.31479992,422115.014999639,NA,418851.205799729,327309.955799952,360459.997799713,NA,363746.153599583,410782.25679975,420330.145499669,NA,NA,NA,NA,NA,NA,369250.885299873,416333.118899725,NA,418852.043499705,NA,NA,420625.451499596,12218.3071998879,421470.508699771,12218.330799602,421162.46279981,280920.097199734,NA,369216.992799658,12991.5852998383,NA,NA,246758.938499726,3,3803.09659987688,3,1,30,2,23,"Computer Science",6,1,1,1,1,1
100,96,1112.0323499199,"a","speed","mo1999tu","1","b","a","0","1","0",50,4,700,"Wed Apr 19 13:07:14 2023",2,"eher schwer","accuracy","Experiment.osexp","Bild_s2_b_12.png",1080,"tu",1999,"mo","blaue","C:/Users/steff/Documents/Universität/Master Psychologie/SS 2022/Masterarbeit/Experiment/subject-15.csv",0,0,0,"l",45,15,"a","a",645.032799802721,645.032799802721,15,NA,423325.22529969,NA,369250.955799595,416217.331499793,423970.971100032,423017.104799859,51571.624299977,NA,NA,12218.194599729,NA,411222.138999961,423024.527499918,422443.232099991,NA,422516.018799972,NA,416340.158799663,13007.4452999979,71249.5299000293,90907.1702999063,125518.795299809,158522.585799918,224871.788799763,416340.31479992,423971.050699707,NA,418851.205799729,327309.955799952,360459.997799713,NA,363746.153599583,410782.25679975,422142.565399874,NA,NA,NA,NA,NA,NA,369250.885299873,416333.118899725,NA,422515.945399646,NA,NA,422437.755599618,12218.3071998879,423325.330699794,12218.330799602,423017.019599676,280920.097199734,NA,369216.992799658,12991.5852998383,NA,NA,246758.938499726,4,4448.1293996796,4,1,30,2,23,"Computer Science",6,1,1,1,1,1
100,96,1022.36887998879,"a","speed","mo1999tu","1","b","a","0","1","0",51,4,700,"Wed Apr 19 13:07:14 2023",2,"eher schwer","accuracy","Experiment.osexp","Bild_s2_b_25.png",1080,"tu",1999,"mo","blaue","C:/Users/steff/Documents/Universität/Master Psychologie/SS 2022/Masterarbeit/Experiment/subject-15.csv",0,0,0,"l",50,20,"a","a",663.715000264347,663.715000264347,15,NA,425114.547099918,NA,369250.955799595,416217.331499793,425779.093699995,424806.711199693,51571.624299977,NA,NA,12218.194599729,NA,411222.138999961,424813.571099658,424286.574899685,NA,422516.018799972,NA,416340.158799663,13007.4452999979,71249.5299000293,90907.1702999063,125518.795299809,158522.585799918,224871.788799763,416340.31479992,425779.1749998,NA,418851.205799729,327309.955799952,360459.997799713,NA,363746.153599583,410782.25679975,423985.908600036,NA,NA,NA,NA,NA,NA,369250.885299873,416333.118899725,NA,422515.945399646,NA,NA,424281.172799878,12218.3071998879,425114.632399753,12218.330799602,424806.630499661,280920.097199734,NA,369216.992799658,12991.5852998383,NA,NA,246758.938499726,5,5111.84439994395,5,1,30,2,23,"Computer Science",6,1,1,1,1,1
100,96,984.729216589282,"a","speed","mo1999tu","1","b","a","0","0","1",52,4,700,"Wed Apr 19 13:07:14 2023",1,"eher leicht","accuracy","Experiment.osexp","Bild_s3_b_12.png",1080,"tu",1999,"mo","blaue","C:/Users/steff/Documents/Universität/Master Psychologie/SS 2022/Masterarbeit/Experiment/subject-15.csv",0,0,0,"l",40,10,"a","a",796.530899591744,796.530899591744,15,NA,426965.764299966,NA,369250.955799595,416217.331499793,427762.874699663,426657.835399732,51571.624299977,NA,NA,12218.194599729,NA,411222.138999961,426664.633599576,426102.827799972,NA,426175.852600019,NA,416340.158799663,13007.4452999979,71249.5299000293,90907.1702999063,125518.795299809,158522.585799918,224871.788799763,416340.31479992,427762.970399577,NA,418851.205799729,327309.955799952,360459.997799713,NA,363746.153599583,410782.25679975,425802.000399679,NA,NA,NA,NA,NA,NA,369250.885299873,416333.118899725,NA,426175.780399702,NA,NA,426097.439999692,12218.3071998879,426965.847000014,12218.330799602,426657.751400024,280920.097199734,NA,369216.992799658,12991.5852998383,NA,NA,246758.938499726,6,5908.37529953569,6,1,30,2,23,"Computer Science",6,1,1,1,1,1
100,96,901.728885647442,"a","speed","mo1999tu","1","b","a","0","1","0",53,4,700,"Wed Apr 19 13:07:14 2023",1,"eher leicht","accuracy","Experiment.osexp","Bild_s3_b_24.png",1080,"tu",1999,"mo","blaue","C:/Users/steff/Documents/Universität/Master Psychologie/SS 2022/Masterarbeit/Experiment/subject-15.csv",0,0,0,"l",45,15,"a","a",403.7268999964,403.7268999964,15,NA,428942.447899841,NA,369250.955799595,416217.331499793,429346.982699819,428632.967699785,51571.624299977,NA,NA,12218.194599729,NA,411222.138999961,428640.220999718,428090.465699788,NA,426175.852600019,NA,416340.158799663,13007.4452999979,71249.5299000293,90907.1702999063,125518.795299809,158522.585799918,224871.788799763,416340.31479992,429347.056199796,NA,418851.205799729,327309.955799952,427789.109099656,NA,363746.153599583,410782.25679975,425802.000399679,NA,NA,NA,NA,NA,NA,369250.885299873,416333.118899725,NA,426175.780399702,NA,NA,428085.066199768,12218.3071998879,428942.620799877,12218.330799602,428632.884599734,280920.097199734,NA,369216.992799658,12991.5852998383,NA,NA,246758.938499726,7,6312.10219953209,7,1,30,2,23,"Computer Science",6,1,1,1,1,1
100,96,840.325437427964,"a","speed","mo1999tu","1","o","l","0","1","0",54,4,700,"Wed Apr 19 13:07:14 2023",0,"sehr leicht","accuracy","Experiment.osexp","Bild_s4_o_17.png",1080,"tu",1999,"mo","blaue","C:/Users/steff/Documents/Universität/Master Psychologie/SS 2022/Masterarbeit/Experiment/subject-15.csv",0,0,0,"l",50,20,"l","l",410.501299891621,410.501299891621,15,NA,430551.680400036,NA,369250.955799595,416217.331499793,430962.832199875,430243.253599852,51571.624299977,NA,NA,12218.194599729,NA,411222.138999961,430250.50839968,429668.029399589,NA,429738.734100014,NA,416340.158799663,13007.4452999979,71249.5299000293,90907.1702999063,125518.795299809,158522.585799918,224871.788799763,416340.31479992,430962.903399952,NA,418851.205799729,327309.955799952,427789.109099656,NA,363746.153599583,410782.25679975,429366.979899816,NA,NA,NA,NA,NA,NA,369250.885299873,416333.118899725,NA,429738.661299925,NA,NA,429662.474299781,12218.3071998879,430551.851499826,12218.330799602,430243.15849971,280920.097199734,NA,369216.992799658,12991.5852998383,NA,NA,246758.938499726,8,6722.60349942371,8,1,30,2,23,"Computer Science",6,1,1,1,1,1
100,96,795.682999926309,"a","speed","mo1999tu","1","b","a","0","1","0",55,4,700,"Wed Apr 19 13:07:14 2023",0,"sehr leicht","accuracy","Experiment.osexp","Bild_s4_b_24.png",1080,"tu",1999,"mo","blaue","C:/Users/steff/Documents/Universität/Master Psychologie/SS 2022/Masterarbeit/Experiment/subject-15.csv",0,0,0,"l",55,25,"a","a",438.543499913067,438.543499913067,15,NA,432139.634099789,NA,369250.955799595,416217.331499793,432579.001300037,431831.277600024,51571.624299977,NA,NA,12218.194599729,NA,411222.138999961,431838.563099969,431290.086199995,NA,429738.734100014,NA,416340.158799663,13007.4452999979,71249.5299000293,90907.1702999063,125518.795299809,158522.585799918,224871.788799763,416340.31479992,432579.074299894,NA,418851.205799729,327309.955799952,427789.109099656,NA,363746.153599583,410782.25679975,430989.581899717,NA,NA,NA,NA,NA,NA,369250.885299873,416333.118899725,NA,429738.661299925,NA,NA,431284.62079959,12218.3071998879,432139.810199849,12218.330799602,431831.196999643,280920.097199734,NA,369216.992799658,12991.5852998383,NA,NA,246758.938499726,9,7161.14699933678,9,1,30,2,23,"Computer Science",6,1,1,1,1,1
100,96,772.244839929044,"a","speed","mo1999tu","1","o","l","0","1","0",56,4,700,"Wed Apr 19 13:07:14 2023",0,"sehr leicht","accuracy","Experiment.osexp","Bild_s4_o_5.png",1080,"tu",1999,"mo","blaue","C:/Users/steff/Documents/Universität/Master Psychologie/SS 2022/Masterarbeit/Experiment/subject-15.csv",0,0,0,"l",60,30,"l","l",561.301399953663,561.301399953663,15,NA,433792.928799987,NA,369250.955799595,416217.331499793,434355.081999674,433483.927199617,51571.624299977,NA,NA,12218.194599729,NA,411222.138999961,433491.064299829,432905.782499816,NA,432982.424299698,NA,416340.158799663,13007.4452999979,71249.5299000293,90907.1702999063,125518.795299809,158522.585799918,224871.788799763,416340.31479992,434355.155599769,NA,418851.205799729,327309.955799952,427789.109099656,NA,363746.153599583,410782.25679975,432605.223199818,NA,NA,NA,NA,NA,NA,369250.885299873,416333.118899725,NA,432982.350299601,NA,NA,432900.398599915,12218.3071998879,433793.052099645,12218.330799602,433483.847099822,280920.097199734,NA,369216.992799658,12991.5852998383,NA,NA,246758.938499726,10,7722.44839929044,10,1,30,2,23,"Computer Science",6,1,1,1,1,1
100,96,745.81797264347,"a","speed","mo1999tu","1","o","l","0","1","0",57,4,700,"Wed Apr 19 13:07:14 2023",0,"sehr leicht","accuracy","Experiment.osexp","Bild_s4_o_4.png",1080,"tu",1999,"mo","blaue","C:/Users/steff/Documents/Universität/Master Psychologie/SS 2022/Masterarbeit/Experiment/subject-15.csv",0,0,0,"l",65,35,"l","l",481.54929978773,481.54929978773,15,NA,435520.717300009,NA,369250.955799595,416217.331499793,436002.923300024,435212.936099619,51571.624299977,NA,NA,12218.194599729,NA,411222.138999961,435220.063199755,434671.145800035,NA,432982.424299698,NA,416340.158799663,13007.4452999979,71249.5299000293,90907.1702999063,125518.795299809,158522.585799918,224871.788799763,416340.31479992,436002.996199764,NA,418851.205799729,327309.955799952,427789.109099656,NA,363746.153599583,410782.25679975,434370.181199629,NA,NA,NA,NA,NA,NA,369250.885299873,416333.118899725,NA,432982.350299601,NA,NA,434665.625500027,12218.3071998879,435520.800599828,12218.330799602,435212.852899916,280920.097199734,NA,369216.992799658,12991.5852998383,NA,NA,246758.938499726,11,8203.99769907817,11,1,30,2,23,"Computer Science",6,1,1,1,1,1
100,96,721.932816590803,"a","speed","mo1999tu","1","o","l","0","1","0",58,4,700,"Wed Apr 19 13:07:14 2023",1,"eher leicht","accuracy","Experiment.osexp","Bild_s3_o_23.png",1080,"tu",1999,"mo","blaue","C:/Users/steff/Documents/Universität/Master Psychologie/SS 2022/Masterarbeit/Experiment/subject-15.csv",0,0,0,"l",70,40,"l","l",459.196100011468,459.196100011468,15,NA,437206.948800012,NA,369250.955799595,416217.331499793,437666.968300007,436899.172399659,51571.624299977,NA,NA,12218.194599729,NA,411222.138999961,436906.349799596,436323.342700023,NA,436393.615499604,NA,416340.158799663,13007.4452999979,71249.5299000293,90907.1702999063,125518.795299809,158522.585799918,224871.788799763,416340.31479992,437667.040999979,NA,418851.205799729,327309.955799952,427789.109099656,NA,363746.153599583,410782.25679975,436022.788899951,NA,NA,NA,NA,NA,NA,369250.885299873,416333.118899725,NA,436393.544699997,NA,NA,436317.973099649,12218.3071998879,437207.139399834,12218.330799602,436899.09139974,280920.097199734,NA,369216.992799658,12991.5852998383,NA,NA,246758.938499726,12,8663.19379908964,12,1,30,2,23,"Computer Science",6,1,1,1,1,1
100,96,698.01259223515,"a","speed","mo1999tu","1","b","a","0","1","0",59,4,700,"Wed Apr 19 13:07:14 2023",1,"eher leicht","accuracy","Experiment.osexp","Bild_s3_b_3.png",1080,"tu",1999,"mo","blaue","C:/Users/steff/Documents/Universität/Master Psychologie/SS 2022/Masterarbeit/Experiment/subject-15.csv",0,0,0,"l",75,45,"a","a",410.969899967313,410.969899967313,15,NA,438839.195299894,NA,369250.955799595,416217.331499793,439250.917699654,438531.092299614,51571.624299977,NA,NA,12218.194599729,NA,411222.138999961,438538.458899595,437987.247999758,NA,436393.615499604,NA,416340.158799663,13007.4452999979,71249.5299000293,90907.1702999063,125518.795299809,158522.585799918,224871.788799763,416340.31479992,439250.989999622,NA,418851.205799729,327309.955799952,427789.109099656,NA,363746.153599583,410782.25679975,437686.276699882,NA,NA,NA,NA,NA,NA,369250.885299873,416333.118899725,NA,436393.544699997,NA,NA,437981.830799952,12218.3071998879,438839.37169984,12218.330799602,438531.012299936,280920.097199734,NA,369216.992799658,12991.5852998383,NA,NA,246758.938499726,13,9074.16369905695,13,1,30,2,23,"Computer Science",6,1,1,1,1,1
100,96,673.961999925918,"a","speed","mo1999tu","1","b","a","0","1","0",60,4,700,"Wed Apr 19 13:07:14 2023",2,"eher schwer","accuracy","Experiment.osexp","Bild_s2_b_1.png",1080,"tu",1999,"mo","blaue","C:/Users/steff/Documents/Universität/Master Psychologie/SS 2022/Masterarbeit/Experiment/subject-15.csv",0,0,0,"l",80,50,"a","a",361.304299905896,361.304299905896,15,NA,440457.015199587,NA,369250.955799595,416217.331499793,440818.977899849,440149.262699764,51571.624299977,NA,NA,12218.194599729,NA,411222.138999961,440156.441699713,439575.325999875,NA,439646.131099667,NA,416340.158799663,13007.4452999979,71249.5299000293,90907.1702999063,125518.795299809,158522.585799918,224871.788799763,416340.31479992,440819.05129971,NA,418851.205799729,327309.955799952,427789.109099656,NA,363746.153599583,410782.25679975,439274.688899983,NA,NA,NA,NA,NA,NA,369250.885299873,416333.118899725,NA,439646.05510002,NA,NA,439569.856499787,12218.3071998879,440457.089199685,12218.330799602,440149.167599622,280920.097199734,NA,369216.992799658,12991.5852998383,NA,NA,246758.938499726,14,9435.46799896285,14,1,30,2,23,"Computer Science",6,1,1,1,1,1
100,96,675.212739904722,"a","speed","mo1999tu","1","o","l","0","1","0",61,4,700,"Wed Apr 19 13:07:14 2023",2,"eher schwer","accuracy","Experiment.osexp","Bild_s2_o_3.png",1080,"tu",1999,"mo","blaue","C:/Users/steff/Documents/Universität/Master Psychologie/SS 2022/Masterarbeit/Experiment/subject-15.csv",0,0,0,"l",85,55,"l","l",692.723099607974,692.723099607974,15,NA,441997.54719995,NA,369250.955799595,416217.331499793,442691.037499812,441689.497499727,51571.624299977,NA,NA,12218.194599729,NA,411222.138999961,441696.788799949,441148.295699619,NA,439646.131099667,NA,416340.158799663,13007.4452999979,71249.5299000293,90907.1702999063,125518.795299809,158522.585799918,224871.788799763,416340.31479992,442691.110599786,NA,418851.205799729,327309.955799952,427789.109099656,NA,363746.153599583,410782.25679975,440847.633599769,NA,NA,NA,NA,NA,NA,369250.885299873,416333.118899725,NA,439646.05510002,NA,NA,441142.892399803,12218.3071998879,441997.626699973,12218.330799602,441689.418699592,280920.097199734,NA,369216.992799658,12991.5852998383,NA,NA,246758.938499726,15,10128.1910985708,15,1,30,2,23,"Computer Science",6,1,1,1,1,1
100,96,658.036606182577,"a","speed","mo1999tu","1","o","l","0","1","0",62,4,700,"Wed Apr 19 13:07:14 2023",3,"sehr schwer","accuracy","Experiment.osexp","Bild_s1_o_5.png",1080,"tu",1999,"mo","blaue","C:/Users/steff/Documents/Universität/Master Psychologie/SS 2022/Masterarbeit/Experiment/subject-15.csv",0,0,0,"l",90,60,"l","l",400.39460035041,400.39460035041,15,NA,443889.849499799,NA,369250.955799595,416217.331499793,444291.01189971,443582.053199876,51571.624299977,NA,NA,12218.194599729,NA,411222.138999961,443589.217899833,443007.805399597,NA,443078.607299831,NA,416340.158799663,13007.4452999979,71249.5299000293,90907.1702999063,125518.795299809,158522.585799918,224871.788799763,416340.31479992,444291.087099817,NA,418851.205799729,327309.955799952,427789.109099656,NA,363746.153599583,410782.25679975,442707.089100033,NA,NA,NA,NA,NA,NA,369250.885299873,416333.118899725,NA,443078.533099964,NA,NA,443002.302099951,12218.3071998879,443889.946299605,12218.330799602,443581.974599976,280920.097199734,NA,369216.992799658,12991.5852998383,NA,NA,246758.938499726,16,10528.5856989212,16,1,30,2,23,"Computer Science",6,1,1,1,1,1
94.1176470588235,96,659.168676418417,"a","speed","mo1999tu","0","b","a","0","0","0",63,4,700,"Wed Apr 19 13:07:14 2023",3,"sehr schwer","accuracy","Experiment.osexp","Bild_s1_b_24.png",1080,"tu",1999,"mo","blaue","C:/Users/steff/Documents/Universität/Master Psychologie/SS 2022/Masterarbeit/Experiment/subject-15.csv",0,1,0,"l",80,50,"l","l",677.281800191849,677.281800191849,15,NA,445452.971999999,NA,369250.955799595,416217.331499793,446131.024600007,445145.067999605,51571.624299977,NA,NA,12218.194599729,NA,411222.138999961,445151.729200035,444611.028799787,NA,443078.607299831,NA,416340.158799663,13007.4452999979,71249.5299000293,90907.1702999063,125518.795299809,158522.585799918,224871.788799763,416340.31479992,446131.121199578,NA,418851.205799729,327309.955799952,427789.109099656,NA,363746.153599583,410782.25679975,444310.44739997,NA,NA,NA,NA,NA,NA,369250.885299873,416333.118899725,NA,443078.533099964,NA,NA,444605.572199915,12218.3071998879,445453.057099599,12218.330799602,445144.985899795,280920.097199734,NA,369216.992799658,12991.5852998383,NA,NA,246758.938499726,16,11205.8674991131,17,1,30,2,23,"Computer Science",6,1,1,1,1,1
100,96,22429.5380002198,"a","accuracy","mo1999tu","1","o","l","1","0","0",64,5,700,"Wed Apr 19 13:07:14 2023",2,"eher schwer","accuracy","Experiment.osexp","Bild_s2_o_4.png",1080,"tu",1999,"mo","blaue","C:/Users/steff/Documents/Universität/Master Psychologie/SS 2022/Masterarbeit/Experiment/subject-15.csv",0,0,0,"l",5,5,"l","l",1032.79820038006,1032.79820038006,15,NA,483593.437099829,478539.765599649,369250.955799595,451596.994999796,484626.956699882,483285.484699998,51571.624299977,451670.204599854,NA,12218.194599729,NA,446601.667299867,483292.766999919,446459.219599608,482755.744599737,443078.607299831,478640.281599946,416340.158799663,13007.4452999979,71249.5299000293,90907.1702999063,125518.795299809,158522.585799918,224871.788799763,478640.521399677,484627.027299721,482754.917899612,418851.205799729,327309.955799952,427789.109099656,NA,446158.500900026,410782.25679975,444310.44739997,NA,NA,NA,NA,NA,478633.014899679,369250.885299873,416333.118899725,482755.697799847,443078.533099964,478539.568299893,478482.908799779,446453.676200006,12218.3071998879,483593.515999615,12218.330799602,483285.278899595,280920.097199734,451665.835399646,451630.500199739,12991.5852998383,NA,NA,246758.938499726,3,67288.6140006594,3,0,80,2,23,"Computer Science",6,1,1,1,1,1
100,96,17112.5405501807,"a","accuracy","mo1999tu","1","o","l","1","0","0",65,5,700,"Wed Apr 19 13:07:14 2023",2,"eher schwer","accuracy","Experiment.osexp","Bild_s2_o_17.png",1080,"tu",1999,"mo","blaue","C:/Users/steff/Documents/Universität/Master Psychologie/SS 2022/Masterarbeit/Experiment/subject-15.csv",0,0,0,"l",10,10,"l","l",1161.54820006341,1161.54820006341,15,NA,485800.687199924,478539.765599649,369250.955799595,451596.994999796,486962.920599617,485492.259399965,51571.624299977,451670.204599854,NA,12218.194599729,NA,446601.667299867,485499.602600001,484947.056300007,482755.744599737,443078.607299831,478640.281599946,416340.158799663,13007.4452999979,71249.5299000293,90907.1702999063,125518.795299809,158522.585799918,224871.788799763,478640.521399677,486962.995499838,482754.917899612,418851.205799729,327309.955799952,427789.109099656,NA,446158.500900026,484646.266699769,444310.44739997,NA,NA,NA,NA,NA,478633.014899679,369250.885299873,416333.118899725,482755.697799847,443078.533099964,478539.568299893,478482.908799779,484941.619399935,12218.3071998879,485800.765499938,12218.330799602,485492.178999819,280920.097199734,451665.835399646,451630.500199739,12991.5852998383,NA,NA,246758.938499726,4,68450.1622007228,4,0,80,2,23,"Computer Science",6,1,1,1,1,1
100,96,13825.5264000967,"a","accuracy","mo1999tu","1","b","a","1","0","0",66,5,700,"Wed Apr 19 13:07:14 2023",2,"eher schwer","accuracy","Experiment.osexp","Bild_s2_b_11.png",1080,"tu",1999,"mo","blaue","C:/Users/steff/Documents/Universität/Master Psychologie/SS 2022/Masterarbeit/Experiment/subject-15.csv",0,0,0,"l",15,15,"a","a",677.469799760729,677.469799760729,15,NA,488140.726799611,478539.765599649,369250.955799595,451596.994999796,488819.03739972,487832.378400024,51571.624299977,451670.204599854,NA,12218.194599729,NA,446601.667299867,487839.495599736,487292.293599807,482755.744599737,443078.607299831,478640.281599946,416340.158799663,13007.4452999979,71249.5299000293,90907.1702999063,125518.795299809,158522.585799918,224871.788799763,478640.521399677,488819.113599602,482754.917899612,418851.205799729,327309.955799952,427789.109099656,NA,446158.500900026,486991.595299914,444310.44739997,NA,NA,NA,NA,NA,478633.014899679,369250.885299873,416333.118899725,482755.697799847,443078.533099964,478539.568299893,478482.908799779,487286.867699586,12218.3071998879,488140.836299863,12218.330799602,487832.29959989,280920.097199734,451665.835399646,451630.500199739,12991.5852998383,NA,NA,246758.938499726,5,69127.6320004836,5,0,80,2,23,"Computer Science",6,1,1,1,1,1
83.3333333333333,96,11751.030166711,"a","accuracy","mo1999tu","0","b","a","0","0","0",67,5,700,"Wed Apr 19 13:07:14 2023",2,"eher schwer","accuracy","Experiment.osexp","Bild_s2_b_12.png",1080,"tu",1999,"mo","blaue","C:/Users/steff/Documents/Universität/Master Psychologie/SS 2022/Masterarbeit/Experiment/subject-15.csv",1,0,0,"l",5,5,"l","l",1378.54899978265,1378.54899978265,15,NA,489983.579599764,478539.765599649,369250.955799595,451596.994999796,491362.894800026,489675.701200031,51571.624299977,451670.204599854,NA,12218.194599729,NA,446601.667299867,489682.99859995,489134.597799741,482755.744599737,443078.607299831,478640.281599946,416340.158799663,13007.4452999979,71249.5299000293,90907.1702999063,125518.795299809,158522.585799918,224871.788799763,478640.521399677,491362.963099964,482754.917899612,418851.205799729,327309.955799952,427789.109099656,NA,446158.500900026,488833.779099863,444310.44739997,NA,NA,NA,NA,NA,478633.014899679,369250.885299873,416333.118899725,482755.697799847,443078.533099964,478539.568299893,478482.908799779,489129.187899642,12218.3071998879,489983.74950001,12218.330799602,489675.622799899,280920.097199734,451665.835399646,451630.500199739,12991.5852998383,NA,NA,246758.938499726,5,70506.1810002662,6,0,80,2,23,"Computer Science",6,1,1,1,1,1
85.7142857142857,96,10216.4198571949,"a","accuracy","mo1999tu","1","b","a","1","0","0",68,5,700,"Wed Apr 19 13:07:14 2023",2,"eher schwer","accuracy","Experiment.osexp","Bild_s2_b_13.png",1080,"tu",1999,"mo","blaue","C:/Users/steff/Documents/Universität/Master Psychologie/SS 2022/Masterarbeit/Experiment/subject-15.csv",0,0,0,"l",10,10,"a","a",1008.75800009817,1008.75800009817,15,NA,492529.470999725,478539.765599649,369250.955799595,451596.994999796,493539.055699948,492221.05279984,51571.624299977,451670.204599854,NA,12218.194599729,NA,446601.667299867,492228.436599951,491678.263599984,482755.744599737,443078.607299831,478640.281599946,416340.158799663,13007.4452999979,71249.5299000293,90907.1702999063,125518.795299809,158522.585799918,224871.788799763,478640.521399677,493539.126900025,482754.917899612,418851.205799729,491377.503399737,427789.109099656,NA,446158.500900026,488833.779099863,444310.44739997,NA,NA,NA,NA,NA,478633.014899679,369250.885299873,416333.118899725,482755.697799847,443078.533099964,478539.568299893,478482.908799779,491672.783799935,12218.3071998879,492529.568399768,12218.330799602,492220.973999705,280920.097199734,451665.835399646,451630.500199739,12991.5852998383,NA,NA,246758.938499726,6,71514.9390003644,7,0,80,2,23,"Computer Science",6,1,1,1,1,1
87.5,96,9092.36155002145,"a","accuracy","mo1999tu","1","o","l","1","0","0",69,5,700,"Wed Apr 19 13:07:14 2023",2,"eher schwer","accuracy","Experiment.osexp","Bild_s2_o_9.png",1080,"tu",1999,"mo","blaue","C:/Users/steff/Documents/Universität/Master Psychologie/SS 2022/Masterarbeit/Experiment/subject-15.csv",0,0,0,"l",15,15,"l","l",1223.95339980721,1223.95339980721,15,NA,494714.266899973,478539.765599649,369250.955799595,451596.994999796,495938.861799892,494406.211899593,51571.624299977,451670.204599854,NA,12218.194599729,NA,446601.667299867,494413.11590001,493865.877300035,482755.744599737,443078.607299831,478640.281599946,416340.158799663,13007.4452999979,71249.5299000293,90907.1702999063,125518.795299809,158522.585799918,224871.788799763,478640.521399677,495938.943899702,482754.917899612,418851.205799729,491377.503399737,427789.109099656,NA,446158.500900026,493565.185499843,444310.44739997,NA,NA,NA,NA,NA,478633.014899679,369250.885299873,416333.118899725,482755.697799847,443078.533099964,478539.568299893,478482.908799779,493860.494799912,12218.3071998879,494714.351200033,12218.330799602,494406.130599789,280920.097199734,451665.835399646,451630.500199739,12991.5852998383,NA,NA,246758.938499726,7,72738.8924001716,8,0,80,2,23,"Computer Science",6,1,1,1,1,1
88.8888888888889,96,8213.43830000195,"a","accuracy","mo1999tu","1","o","l","1","0","0",70,5,700,"Wed Apr 19 13:07:14 2023",2,"eher schwer","accuracy","Experiment.osexp","Bild_s2_o_11.png",1080,"tu",1999,"mo","blaue","C:/Users/steff/Documents/Universität/Master Psychologie/SS 2022/Masterarbeit/Experiment/subject-15.csv",0,0,0,"l",20,20,"l","l",1182.05229984596,1182.05229984596,15,NA,497108.169099782,478539.765599649,369250.955799595,451596.994999796,498290.938899852,496799.798300024,51571.624299977,451670.204599854,NA,12218.194599729,NA,446601.667299867,496806.724399794,496259.376899805,482755.744599737,443078.607299831,478640.281599946,416340.158799663,13007.4452999979,71249.5299000293,90907.1702999063,125518.795299809,158522.585799918,224871.788799763,478640.521399677,498291.009499691,482754.917899612,418851.205799729,491377.503399737,427789.109099656,NA,446158.500900026,495959.150199778,444310.44739997,NA,NA,NA,NA,NA,478633.014899679,369250.885299873,416333.118899725,482755.697799847,443078.533099964,478539.568299893,478482.908799779,496254.037499893,12218.3071998879,497108.252599835,12218.330799602,496799.714699853,280920.097199734,451665.835399646,451630.500199739,12991.5852998383,NA,NA,246758.938499726,8,73920.9447000176,9,0,80,2,23,"Computer Science",6,1,1,1,1,1
90,96,7495.58971002698,"a","accuracy","mo1999tu","1","b","a","1","0","0",71,5,700,"Wed Apr 19 13:07:14 2023",2,"eher schwer","accuracy","Experiment.osexp","Bild_s2_b_7.png",1080,"tu",1999,"mo","blaue","C:/Users/steff/Documents/Universität/Master Psychologie/SS 2022/Masterarbeit/Experiment/subject-15.csv",0,0,0,"l",25,25,"a","a",1034.95240025222,1034.95240025222,15,NA,499463.172100019,478539.765599649,369250.955799595,451596.994999796,500499.204699881,499155.132099986,51571.624299977,451670.204599854,NA,12218.194599729,NA,446601.667299867,499162.447799928,498610.288999975,482755.744599737,443078.607299831,478640.281599946,416340.158799663,13007.4452999979,71249.5299000293,90907.1702999063,125518.795299809,158522.585799918,224871.788799763,478640.521399677,500499.287699815,482754.917899612,418851.205799729,491377.503399737,427789.109099656,NA,446158.500900026,498309.618599713,444310.44739997,NA,NA,NA,NA,NA,478633.014899679,369250.885299873,416333.118899725,482755.697799847,443078.533099964,478539.568299893,478482.908799779,498604.907799978,12218.3071998879,499463.345899712,12218.330799602,499155.049599707,280920.097199734,451665.835399646,451630.500199739,12991.5852998383,NA,NA,246758.938499726,9,74955.8971002698,10,0,80,2,23,"Computer Science",6,1,1,1,1,1
90.9090909090909,96,6940.33154548908,"a","accuracy","mo1999tu","1","o","l","1","0","0",72,5,700,"Wed Apr 19 13:07:14 2023",3,"sehr schwer","accuracy","Experiment.osexp","Bild_s1_o_8.png",1080,"tu",1999,"mo","blaue","C:/Users/steff/Documents/Universität/Master Psychologie/SS 2022/Masterarbeit/Experiment/subject-15.csv",0,0,0,"l",30,30,"l","l",1387.74990011007,1387.74990011007,15,NA,501734.467799775,478539.765599649,369250.955799595,451596.994999796,503122.865699697,501426.305699628,51571.624299977,451670.204599854,NA,12218.194599729,NA,446601.667299867,501433.334699832,500838.167099748,500913.037899882,443078.607299831,478640.281599946,416340.158799663,13007.4452999979,71249.5299000293,90907.1702999063,125518.795299809,158522.585799918,224871.788799763,478640.521399677,503122.939399909,482754.917899612,418851.205799729,491377.503399737,427789.109099656,NA,446158.500900026,500537.364299875,444310.44739997,NA,NA,NA,NA,NA,478633.014899679,369250.885299873,416333.118899725,500912.962799892,443078.533099964,478539.568299893,478482.908799779,500832.772899885,12218.3071998879,501734.55409985,12218.330799602,501426.154499874,280920.097199734,451665.835399646,451630.500199739,12991.5852998383,NA,NA,246758.938499726,10,76343.6470003799,11,0,80,2,23,"Computer Science",6,1,1,1,1,1
91.6666666666667,96,6471.18760835535,"a","accuracy","mo1999tu","1","b","a","1","0","0",73,5,700,"Wed Apr 19 13:07:14 2023",3,"sehr schwer","accuracy","Experiment.osexp","Bild_s1_b_11.png",1080,"tu",1999,"mo","blaue","C:/Users/steff/Documents/Universität/Master Psychologie/SS 2022/Masterarbeit/Experiment/subject-15.csv",0,0,0,"l",35,35,"a","a",1310.60429988429,1310.60429988429,15,NA,504307.523099706,478539.765599649,369250.955799595,451596.994999796,505619.059099816,503999.520699959,51571.624299977,451670.204599854,NA,12218.194599729,NA,446601.667299867,504006.833299994,503451.116499957,500913.037899882,443078.607299831,478640.281599946,416340.158799663,13007.4452999979,71249.5299000293,90907.1702999063,125518.795299809,158522.585799918,224871.788799763,478640.521399677,505619.134000037,482754.917899612,418851.205799729,491377.503399737,427789.109099656,NA,446158.500900026,503150.768599939,444310.44739997,NA,NA,NA,NA,NA,478633.014899679,369250.885299873,416333.118899725,500912.962799892,443078.533099964,478539.568299893,478482.908799779,503445.693599992,12218.3071998879,504307.695999741,12218.330799602,503999.439099804,280920.097199734,451665.835399646,451630.500199739,12991.5852998383,NA,NA,246758.938499726,11,77654.2513002641,12,0,80,2,23,"Computer Science",6,1,1,1,1,1
84.6153846153846,96,6101.01190771764,"a","accuracy","mo1999tu","0","o","l","0","0","0",74,5,700,"Wed Apr 19 13:07:14 2023",3,"sehr schwer","accuracy","Experiment.osexp","Bild_s1_o_6.png",1080,"tu",1999,"mo","blaue","C:/Users/steff/Documents/Universität/Master Psychologie/SS 2022/Masterarbeit/Experiment/subject-15.csv",1,0,0,"l",25,25,"a","a",1658.90350006521,1658.90350006521,15,NA,506791.243199725,478539.765599649,369250.955799595,451596.994999796,508451.014499646,506483.300099615,51571.624299977,451670.204599854,NA,12218.194599729,NA,446601.667299867,506490.593599621,505936.073099729,500913.037899882,443078.607299831,478640.281599946,416340.158799663,13007.4452999979,71249.5299000293,90907.1702999063,125518.795299809,158522.585799918,224871.788799763,478640.521399677,508451.08409971,482754.917899612,418851.205799729,491377.503399737,427789.109099656,NA,446158.500900026,505635.209099855,444310.44739997,NA,NA,NA,NA,NA,478633.014899679,369250.885299873,416333.118899725,500912.962799892,443078.533099964,478539.568299893,478482.908799779,505930.643099826,12218.3071998879,506791.413699742,12218.330799602,506483.21649991,280920.097199734,451665.835399646,451630.500199739,12991.5852998383,NA,NA,246758.938499726,11,79313.1548003294,13,0,80,2,23,"Computer Science",6,1,1,1,1,1
78.5714285714286,96,5767.34830000039,"a","accuracy","mo1999tu","0","o","l","0","0","0",75,5,700,"Wed Apr 19 13:07:14 2023",3,"sehr schwer","accuracy","Experiment.osexp","Bild_s1_o_19.png",1080,"tu",1999,"mo","blaue","C:/Users/steff/Documents/Universität/Master Psychologie/SS 2022/Masterarbeit/Experiment/subject-15.csv",1,0,0,"l",15,15,"a","a",1429.72139967605,1429.72139967605,15,NA,509628.416099586,478539.765599649,369250.955799595,451596.994999796,511058.970999904,509320.832700003,51571.624299977,451670.204599854,NA,12218.194599729,NA,446601.667299867,509327.861799859,508769.680699799,500913.037899882,443078.607299831,478640.281599946,416340.158799663,13007.4452999979,71249.5299000293,90907.1702999063,125518.795299809,158522.585799918,224871.788799763,478640.521399677,511059.041299857,482754.917899612,418851.205799729,508469.015799928,427789.109099656,NA,446158.500900026,505635.209099855,444310.44739997,NA,NA,NA,NA,NA,478633.014899679,369250.885299873,416333.118899725,500912.962799892,443078.533099964,478539.568299893,478482.908799779,508764.25909996,12218.3071998879,509628.576599993,12218.330799602,509320.752999745,280920.097199734,451665.835399646,451630.500199739,12991.5852998383,NA,NA,246758.938499726,11,80742.8762000054,14,0,80,2,23,"Computer Science",6,1,1,1,1,1
80,96,5463.06222667918,"a","accuracy","mo1999tu","1","o","l","1","0","0",76,5,700,"Wed Apr 19 13:07:14 2023",3,"sehr schwer","accuracy","Experiment.osexp","Bild_s1_o_3.png",1080,"tu",1999,"mo","blaue","C:/Users/steff/Documents/Universität/Master Psychologie/SS 2022/Masterarbeit/Experiment/subject-15.csv",0,0,0,"l",20,20,"l","l",1203.05720018223,1203.05720018223,15,NA,512239.074099809,478539.765599649,369250.955799595,451596.994999796,513443.059799727,511931.119199842,51571.624299977,451670.204599854,NA,12218.194599729,NA,446601.667299867,511938.391299918,511385.564900003,500913.037899882,443078.607299831,478640.281599946,416340.158799663,13007.4452999979,71249.5299000293,90907.1702999063,125518.795299809,158522.585799918,224871.788799763,478640.521399677,513443.13009968,482754.917899612,418851.205799729,511084.798899945,427789.109099656,NA,446158.500900026,505635.209099855,444310.44739997,NA,NA,NA,NA,NA,478633.014899679,369250.885299873,416333.118899725,500912.962799892,443078.533099964,478539.568299893,478482.908799779,511380.146199837,12218.3071998879,512239.244399592,12218.330799602,511931.03849981,280920.097199734,451665.835399646,451630.500199739,12991.5852998383,NA,NA,246758.938499726,12,81945.9334001876,15,0,80,2,23,"Computer Science",6,1,1,1,1,1
75,96,5181.56470000395,"a","accuracy","mo1999tu","0","o","l","0","0","0",77,5,700,"Wed Apr 19 13:07:14 2023",3,"sehr schwer","accuracy","Experiment.osexp","Bild_s1_o_7.png",1080,"tu",1999,"mo","blaue","C:/Users/steff/Documents/Universität/Master Psychologie/SS 2022/Masterarbeit/Experiment/subject-15.csv",1,0,0,"l",10,10,"a","a",959.101799875498,959.101799875498,15,NA,514611.110999715,478539.765599649,369250.955799595,451596.994999796,515571.08299993,514303.278399631,51571.624299977,451670.204599854,NA,12218.194599729,NA,446601.667299867,514310.199099593,513763.421999756,500913.037899882,443078.607299831,478640.281599946,416340.158799663,13007.4452999979,71249.5299000293,90907.1702999063,125518.795299809,158522.585799918,224871.788799763,478640.521399677,515571.153999772,482754.917899612,418851.205799729,511084.798899945,427789.109099656,NA,446158.500900026,513462.544299662,444310.44739997,NA,NA,NA,NA,NA,478633.014899679,369250.885299873,416333.118899725,500912.962799892,443078.533099964,478539.568299893,478482.908799779,513757.987699937,12218.3071998879,514611.1943,12218.330799602,514303.201499861,280920.097199734,451665.835399646,451630.500199739,12991.5852998383,NA,NA,246758.938499726,12,82905.0352000631,16,0,80,2,23,"Computer Science",6,1,1,1,1,1
76.4705882352941,96,4988.15544119433,"a","accuracy","mo1999tu","1","o","l","1","0","0",78,5,700,"Wed Apr 19 13:07:14 2023",3,"sehr schwer","accuracy","Experiment.osexp","Bild_s1_o_22.png",1080,"tu",1999,"mo","blaue","C:/Users/steff/Documents/Universität/Master Psychologie/SS 2022/Masterarbeit/Experiment/subject-15.csv",0,0,0,"l",15,15,"l","l",1893.60730024055,1893.60730024055,15,NA,516748.504600022,478539.765599649,369250.955799595,451596.994999796,518642.997500021,516440.622499678,51571.624299977,451670.204599854,NA,12218.194599729,NA,446601.667299867,516447.857199702,515899.83649971,500913.037899882,443078.607299831,478640.281599946,416340.158799663,13007.4452999979,71249.5299000293,90907.1702999063,125518.795299809,158522.585799918,224871.788799763,478640.521399677,518643.068299629,482754.917899612,418851.205799729,515599.173199851,427789.109099656,NA,446158.500900026,513462.544299662,444310.44739997,NA,NA,NA,NA,NA,478633.014899679,369250.885299873,416333.118899725,500912.962799892,443078.533099964,478539.568299893,478482.908799779,515894.395899959,12218.3071998879,516748.662099708,12218.330799602,516440.542999655,280920.097199734,451665.835399646,451630.500199739,12991.5852998383,NA,NA,246758.938499726,13,84798.6425003037,17,0,80,2,23,"Computer Science",6,1,1,1,1,1
72.2222222222222,96,4778.46983890049,"a","accuracy","mo1999tu","0","b","a","0","0","0",79,5,700,"Wed Apr 19 13:07:14 2023",3,"sehr schwer","accuracy","Experiment.osexp","Bild_s1_b_9.png",1080,"tu",1999,"mo","blaue","C:/Users/steff/Documents/Universität/Master Psychologie/SS 2022/Masterarbeit/Experiment/subject-15.csv",1,0,0,"l",5,5,"l","l",1213.81459990516,1213.81459990516,15,NA,519812.301700003,478539.765599649,369250.955799595,451596.994999796,521026.988799684,519504.011599813,51571.624299977,451670.204599854,NA,12218.194599729,NA,446601.667299867,519511.173199862,518960.4415996,500913.037899882,443078.607299831,478640.281599946,416340.158799663,13007.4452999979,71249.5299000293,90907.1702999063,125518.795299809,158522.585799918,224871.788799763,478640.521399677,521027.058799751,482754.917899612,418851.205799729,515599.173199851,427789.109099656,NA,446158.500900026,518659.62479962,444310.44739997,NA,NA,NA,NA,NA,478633.014899679,369250.885299873,416333.118899725,500912.962799892,443078.533099964,478539.568299893,478482.908799779,518955.052699894,12218.3071998879,519812.471400015,12218.330799602,519503.929199651,280920.097199734,451665.835399646,451630.500199739,12991.5852998383,NA,NA,246758.938499726,13,86012.4571002088,18,0,80,2,23,"Computer Science",6,1,1,1,1,1
68.4210526315789,96,4570.98109476072,"a","accuracy","mo1999tu","0","o","l","0","0","0",80,5,700,"Wed Apr 19 13:07:14 2023",3,"sehr schwer","accuracy","Experiment.osexp","Bild_s1_o_13.png",1080,"tu",1999,"mo","blaue","C:/Users/steff/Documents/Universität/Master Psychologie/SS 2022/Masterarbeit/Experiment/subject-15.csv",1,0,0,"l",-5,-5,"a","a",836.183700244874,836.183700244874,15,NA,522237.985699903,478539.765599649,369250.955799595,451596.994999796,523074.864099734,521929.920499679,51571.624299977,451670.204599854,NA,12218.194599729,NA,446601.667299867,521936.827299651,521345.263199881,521423.337599728,443078.607299831,478640.281599946,416340.158799663,13007.4452999979,71249.5299000293,90907.1702999063,125518.795299809,158522.585799918,224871.788799763,478640.521399677,523074.934599921,482754.917899612,418851.205799729,521044.694999699,427789.109099656,NA,446158.500900026,518659.62479962,444310.44739997,NA,NA,NA,NA,NA,478633.014899679,369250.885299873,416333.118899725,521423.26479964,443078.533099964,478539.568299893,478482.908799779,521339.856599923,12218.3071998879,522238.068999723,12218.330799602,521929.836799856,280920.097199734,451665.835399646,451630.500199739,12991.5852998383,NA,NA,246758.938499726,13,86848.6408004537,19,0,80,2,23,"Computer Science",6,1,1,1,1,1
70,96,4441.51835502125,"a","accuracy","mo1999tu","1","o","l","1","0","0",81,5,700,"Wed Apr 19 13:07:14 2023",3,"sehr schwer","accuracy","Experiment.osexp","Bild_s1_o_24.png",1080,"tu",1999,"mo","blaue","C:/Users/steff/Documents/Universität/Master Psychologie/SS 2022/Masterarbeit/Experiment/subject-15.csv",0,0,0,"l",0,0,"l","l",1981.72629997134,1981.72629997134,15,NA,524260.404199827,478539.765599649,369250.955799595,451596.994999796,526242.990699597,523942.049299832,51571.624299977,451670.204599854,NA,12218.194599729,NA,446601.667299867,523959.219499957,523400.185399689,521423.337599728,443078.607299831,478640.281599946,416340.158799663,13007.4452999979,71249.5299000293,90907.1702999063,125518.795299809,158522.585799918,224871.788799763,478640.521399677,526243.081099819,482754.917899612,418851.205799729,523099.843399599,427789.109099656,NA,446158.500900026,518659.62479962,444310.44739997,NA,NA,NA,NA,NA,478633.014899679,369250.885299873,416333.118899725,521423.26479964,443078.533099964,478539.568299893,478482.908799779,523394.638699945,12218.3071998879,524260.501299985,12218.330799602,523941.910099704,280920.097199734,451665.835399646,451630.500199739,12991.5852998383,NA,NA,246758.938499726,14,88830.3671004251,20,0,80,2,23,"Computer Science",6,1,1,1,1,1
71.4285714285714,96,4302.55309048863,"a","accuracy","mo1999tu","1","b","a","1","0","0",82,5,700,"Wed Apr 19 13:07:14 2023",3,"sehr schwer","accuracy","Experiment.osexp","Bild_s1_b_17.png",1080,"tu",1999,"mo","blaue","C:/Users/steff/Documents/Universität/Master Psychologie/SS 2022/Masterarbeit/Experiment/subject-15.csv",0,0,0,"l",5,5,"a","a",1523.2477998361,1523.2477998361,15,NA,527550.946400035,478539.765599649,369250.955799595,451596.994999796,529075.039799791,527242.494599894,51571.624299977,451670.204599854,NA,12218.194599729,NA,446601.667299867,527249.764699955,526557.645099703,521423.337599728,443078.607299831,478640.281599946,416340.158799663,13007.4452999979,71249.5299000293,90907.1702999063,125518.795299809,158522.585799918,224871.788799763,478640.521399677,529075.12009982,482754.917899612,418851.205799729,523099.843399599,427789.109099656,NA,446158.500900026,526256.716299802,444310.44739997,NA,NA,NA,NA,NA,478633.014899679,369250.885299873,416333.118899725,521423.26479964,443078.533099964,478539.568299893,478482.908799779,526551.467299927,12218.3071998879,527551.035299897,12218.330799602,527242.408799939,280920.097199734,451665.835399646,451630.500199739,12991.5852998383,NA,NA,246758.938499726,15,90353.6149002612,21,0,80,2,23,"Computer Science",6,1,1,1,1,1
68.1818181818182,96,4176.80038183674,"a","accuracy","mo1999tu","0","b","a","0","0","0",83,5,700,"Wed Apr 19 13:07:14 2023",3,"sehr schwer","accuracy","Experiment.osexp","Bild_s1_b_7.png",1080,"tu",1999,"mo","blaue","C:/Users/steff/Documents/Universität/Master Psychologie/SS 2022/Masterarbeit/Experiment/subject-15.csv",1,0,0,"l",-5,-5,"l","l",1535.99350014701,1535.99350014701,15,NA,530242.181399837,478539.765599649,369250.955799595,451596.994999796,531779.029899742,529934.089899994,51571.624299977,451670.204599854,NA,12218.194599729,NA,446601.667299867,529941.004499793,529392.114999704,521423.337599728,443078.607299831,478640.281599946,416340.158799663,13007.4452999979,71249.5299000293,90907.1702999063,125518.795299809,158522.585799918,224871.788799763,478640.521399677,531779.09939969,482754.917899612,418851.205799729,523099.843399599,427789.109099656,NA,446158.500900026,529091.21689992,444310.44739997,NA,NA,NA,NA,NA,478633.014899679,369250.885299873,416333.118899725,521423.26479964,443078.533099964,478539.568299893,478482.908799779,529386.676299851,12218.3071998879,530242.283799686,12218.330799602,529934.01159998,280920.097199734,451665.835399646,451630.500199739,12991.5852998383,NA,NA,246758.938499726,15,91889.6084004082,22,0,80,2,23,"Computer Science",6,1,1,1,1,1
69.5652173913043,96,4065.59994351119,"a","accuracy","mo1999tu","1","b","a","1","0","0",84,5,700,"Wed Apr 19 13:07:14 2023",3,"sehr schwer","accuracy","Experiment.osexp","Bild_s1_b_16.png",1080,"tu",1999,"mo","blaue","C:/Users/steff/Documents/Universität/Master Psychologie/SS 2022/Masterarbeit/Experiment/subject-15.csv",0,0,0,"l",0,0,"a","a",1619.19030034915,1619.19030034915,15,NA,532942.974200007,478539.765599649,369250.955799595,451596.994999796,534562.992999796,532635.143999942,51571.624299977,451670.204599854,NA,12218.194599729,NA,446601.667299867,532642.375799827,532093.904499896,521423.337599728,443078.607299831,478640.281599946,416340.158799663,13007.4452999979,71249.5299000293,90907.1702999063,125518.795299809,158522.585799918,224871.788799763,478640.521399677,534563.06559965,482754.917899612,418851.205799729,531793.296699878,427789.109099656,NA,446158.500900026,529091.21689992,444310.44739997,NA,NA,NA,NA,NA,478633.014899679,369250.885299873,416333.118899725,521423.26479964,443078.533099964,478539.568299893,478482.908799779,532088.554299902,12218.3071998879,532943.068499677,12218.330799602,532635.06559981,280920.097199734,451665.835399646,451630.500199739,12991.5852998383,NA,NA,246758.938499726,16,93508.7987007573,23,0,80,2,23,"Computer Science",6,1,1,1,1,1
