"accuracy","anzahl_gruppen","avg_rt","blauetaste","block","code","correct","correct_colour","correct_response","correct1","correct2","correct3","count_bildstimulus_3_1","count_block","cutoff","datetime","difficulty","difficulty_f","erstebedingung","experiment_file","filename","height","id_geburtsort","id_jahr","id_vater","linketaste","logfile","loose1","loose2","loose3","orangenetaste","punkte1","punkteimblock","response","response_tasteresponse_3_1","response_time","response_time_tasteresponse_3_1","subject_nr","time_bildershuffle","time_bildstimulus_3_1","time_block","time_block_tut","time_blockwerte_zuruecksetzten","time_cutoff_werte_und_punkte_3_1","time_definecorrectcolour_3_1","time_eingabemaske_kuerzel_python","time_ende_tutorial_1","time_ende_experimentierungsphase","time_experiment","time_feedback_serie","time_feedback_tutorial","time_fixationcross_3_1","time_grauesbild_3_1","time_gruppe_block","time_gruppe_tutorial","time_instruktionen_block","time_instruktionen_tutorial_1","time_introduction_1","time_introduction_2_1","time_introduction_3_punkte","time_introduction_3_speed","time_introduction_4_accuracy","time_introduction_5_feedback","time_leertaste_fuer_naechsten_bildschirm","time_logger_3_1","time_loop_block","time_loop_block_tut","time_minifeedbacknegativ_acc","time_minifeedbacknegativ_speed_slow","time_minifeedbacknegativ_speed_slowandwrong","time_minifeedbacknegativ_speed_wrong","time_minifeedbackpositiv_acc","time_minifeedbackpositiv_speed","time_new_inline_script","time_pause_zwischen_serie_1","time_pause_zwischen_serie_2","time_reset_feedback","time_reset_feedback_1","time_sequenz_block","time_sequenz_block_tut","time_sequenz_block_tut_1","time_sequenz_gruppe","time_sequenz_gruppe_tut","time_sequenz_serie","time_serie","time_set_to_zero","time_start","time_tasteresponse_3_1","time_testloopprepareglitchtutorial","time_trial_3_1","time_tutorial","time_tutorial_ende","time_tutorial_wiederholungscheck","time_vorgeplaenkel","time_warnhinweis_3sek","time_warnhinweis_5sek","time_warnung_tutorial_1","total_correct","total_response_time","total_responses","tutorial","tutorialpunkte","geschlecht","alter","studiengang","bildungsabschluss","haendig1","haendig2","haendig3","haendig4","haendig_mean"
88.8888888888889,96,70078.5412778043,"a","accuracy","es2000he","0","b","a","0","0","0",0,1,700,"Wed Apr 12 10:09:57 2023",3,"sehr schwer","speed","Experiment.osexp","Bild_s1_b_17.png",1080,"he",2000,"es","blaue","C:/Users/steff/Documents/Universität/Master Psychologie/SS 2022/Masterarbeit/Experiment/subject-12.csv",1,0,0,"l",-10,-10,"l","l",1897.18209998682,1897.18209998682,12,NA,223844.442499802,NA,206107.907900121,NA,225742.377399933,223536.407900043,16494.9489999563,NA,NA,4066.48619985208,NA,NA,223543.783399742,NA,NA,223007.155799773,NA,206201.156400144,4878.91309987754,33120.3319998458,45220.4132000916,62312.0253998786,81173.9107999019,112738.919899799,206201.2618999,225742.448099889,NA,223006.156399846,NA,NA,NA,NA,NA,NA,NA,NA,NA,NA,NA,NA,206107.840599958,206193.523699883,NA,223007.110499777,NA,NA,NA,4066.59650010988,223844.523500185,4066.62099994719,223536.21349996,206107.021499891,NA,NA,4862.26380011067,NA,NA,122306.141799781,8,630706.871500239,9,1,0,1,22,"geographie",5,3,3,3,3,3
90,96,63189.5265300293,"a","accuracy","es2000he","1","o","l","1","0","0",1,1,700,"Wed Apr 12 10:09:57 2023",3,"sehr schwer","speed","Experiment.osexp","Bild_s1_o_17.png",1080,"he",2000,"es","blaue","C:/Users/steff/Documents/Universität/Master Psychologie/SS 2022/Masterarbeit/Experiment/subject-12.csv",0,0,0,"l",-5,-5,"l","l",1188.39380005375,1188.39380005375,12,NA,226937.230099924,NA,206107.907900121,NA,228126.448299736,226629.184400197,16494.9489999563,NA,NA,4066.48619985208,NA,NA,226636.136000045,226076.909400057,NA,223007.155799773,NA,206201.156400144,4878.91309987754,33120.3319998458,45220.4132000916,62312.0253998786,81173.9107999019,112738.919899799,206201.2618999,228126.52010005,NA,223006.156399846,225776.177600026,NA,NA,NA,NA,NA,NA,NA,NA,NA,NA,NA,206107.840599958,206193.523699883,NA,223007.110499777,NA,NA,226071.430000011,4066.59650010988,226937.320800032,4066.62099994719,226629.048400093,206107.021499891,NA,NA,4862.26380011067,NA,NA,122306.141799781,9,631895.265300293,10,1,0,1,22,"geographie",5,3,3,3,3,3
90.9090909090909,96,57496.4151182212,"a","accuracy","es2000he","1","b","a","1","0","0",2,1,700,"Wed Apr 12 10:09:57 2023",2,"eher schwer","speed","Experiment.osexp","Bild_s2_b_21.png",1080,"he",2000,"es","blaue","C:/Users/steff/Documents/Universität/Master Psychologie/SS 2022/Masterarbeit/Experiment/subject-12.csv",0,0,0,"l",0,0,"a","a",565.301000140607,565.301000140607,12,NA,229336.292999797,NA,206107.907900121,NA,229902.313800063,229028.170799837,16494.9489999563,NA,NA,4066.48619985208,NA,NA,229035.227899905,228451.818199828,NA,228523.467400111,NA,206201.156400144,4878.91309987754,33120.3319998458,45220.4132000916,62312.0253998786,81173.9107999019,112738.919899799,206201.2618999,229902.387199923,NA,223006.156399846,225776.177600026,NA,NA,NA,228151.026300155,NA,NA,NA,NA,NA,NA,NA,206107.840599958,206193.523699883,NA,228523.396200035,NA,NA,228446.37699984,4066.59650010988,229336.377299856,4066.62099994719,229028.090700042,206107.021499891,NA,NA,4862.26380011067,NA,NA,122306.141799781,10,632460.566300433,11,1,0,1,22,"geographie",5,3,3,3,3,3
83.3333333333333,96,52768.5843167128,"a","accuracy","es2000he","0","b","a","0","0","0",3,1,700,"Wed Apr 12 10:09:57 2023",2,"eher schwer","speed","Experiment.osexp","Bild_s2_b_3.png",1080,"he",2000,"es","blaue","C:/Users/steff/Documents/Universität/Master Psychologie/SS 2022/Masterarbeit/Experiment/subject-12.csv",1,0,0,"l",-10,-10,"l","l",762.445500120521,762.445500120521,12,NA,231059.032400139,NA,206107.907900121,NA,231822.239900008,230750.835400075,16494.9489999563,NA,NA,4066.48619985208,NA,NA,230757.95749994,230219.36059976,NA,228523.467400111,NA,206201.156400144,4878.91309987754,33120.3319998458,45220.4132000916,62312.0253998786,81173.9107999019,112738.919899799,206201.2618999,231822.317800019,NA,223006.156399846,225776.177600026,NA,NA,NA,229918.818899896,NA,NA,NA,NA,NA,NA,NA,206107.840599958,206193.523699883,NA,228523.396200035,NA,NA,230213.861899916,4066.59650010988,231059.217100032,4066.62099994719,230750.753799919,206107.021499891,NA,NA,4862.26380011067,NA,NA,122306.141799781,10,633223.011800554,12,1,0,1,22,"geographie",5,3,3,3,3,3
84.6153846153846,96,48818.0579231479,"a","accuracy","es2000he","1","o","l","1","0","0",4,1,700,"Wed Apr 12 10:09:57 2023",1,"eher leicht","speed","Experiment.osexp","Bild_s3_o_7.png",1080,"he",2000,"es","blaue","C:/Users/steff/Documents/Universität/Master Psychologie/SS 2022/Masterarbeit/Experiment/subject-12.csv",0,0,0,"l",-5,-5,"l","l",1411.74120036885,1411.74120036885,12,NA,233017.788900062,NA,206107.907900121,NA,234430.268099997,232710.385600105,16494.9489999563,NA,NA,4066.48619985208,NA,NA,232717.520500068,232137.404299807,NA,232208.281400148,NA,206201.156400144,4878.91309987754,33120.3319998458,45220.4132000916,62312.0253998786,81173.9107999019,112738.919899799,206201.2618999,234430.340999737,NA,223006.156399846,231836.620400194,NA,NA,NA,229918.818899896,NA,NA,NA,NA,NA,NA,NA,206107.840599958,206193.523699883,NA,232208.204200026,NA,NA,232131.987500004,4066.59650010988,233017.96189975,4066.62099994719,232710.306199733,206107.021499891,NA,NA,4862.26380011067,NA,NA,122306.141799781,11,634634.753000923,13,1,0,1,22,"geographie",5,3,3,3,3,3
85.7142857142857,96,45376.630021492,"a","accuracy","es2000he","1","b","a","1","0","0",5,1,700,"Wed Apr 12 10:09:57 2023",1,"eher leicht","speed","Experiment.osexp","Bild_s3_b_20.png",1080,"he",2000,"es","blaue","C:/Users/steff/Documents/Universität/Master Psychologie/SS 2022/Masterarbeit/Experiment/subject-12.csv",0,0,0,"l",0,0,"a","a",638.067299965769,638.067299965769,12,NA,235599.488299806,NA,206107.907900121,NA,236238.424799871,235291.335300077,16494.9489999563,NA,NA,4066.48619985208,NA,NA,235298.724499997,234759.519299958,NA,232208.281400148,NA,206201.156400144,4878.91309987754,33120.3319998458,45220.4132000916,62312.0253998786,81173.9107999019,112738.919899799,206201.2618999,236238.493899815,NA,223006.156399846,231836.620400194,NA,NA,NA,234458.729300182,NA,NA,NA,NA,NA,NA,NA,206107.840599958,206193.523699883,NA,232208.204200026,NA,NA,234754.054599907,4066.59650010988,235599.622599781,4066.62099994719,235291.255999822,206107.021499891,NA,NA,4862.26380011067,NA,NA,122306.141799781,12,635272.820300888,14,1,0,1,22,"geographie",5,3,3,3,3,3
86.6666666666667,96,42408.794473391,"a","accuracy","es2000he","1","o","l","1","0","0",6,1,700,"Wed Apr 12 10:09:57 2023",0,"sehr leicht","speed","Experiment.osexp","Bild_s4_o_25.png",1080,"he",2000,"es","blaue","C:/Users/steff/Documents/Universität/Master Psychologie/SS 2022/Masterarbeit/Experiment/subject-12.csv",0,0,0,"l",5,5,"l","l",859.096799977124,859.096799977124,12,NA,237442.519799806,NA,206107.907900121,NA,238302.187399939,237134.563900065,16494.9489999563,NA,NA,4066.48619985208,NA,NA,237141.617099755,236562.592700124,NA,236634.320999961,NA,206201.156400144,4878.91309987754,33120.3319998458,45220.4132000916,62312.0253998786,81173.9107999019,112738.919899799,206201.2618999,238302.262200043,NA,223006.156399846,231836.620400194,NA,NA,NA,236262.196099851,NA,NA,NA,NA,NA,NA,NA,206107.840599958,206193.523699883,NA,236634.253100026,NA,NA,236557.047000155,4066.59650010988,237442.600999959,4066.62099994719,237134.485200047,206107.021499891,NA,NA,4862.26380011067,NA,NA,122306.141799781,13,636131.917100865,15,1,0,1,22,"geographie",5,3,3,3,3,3
87.5,96,39808.2326750737,"a","accuracy","es2000he","1","b","a","1","0","0",7,1,700,"Wed Apr 12 10:09:57 2023",0,"sehr leicht","speed","Experiment.osexp","Bild_s4_b_19.png",1080,"he",2000,"es","blaue","C:/Users/steff/Documents/Universität/Master Psychologie/SS 2022/Masterarbeit/Experiment/subject-12.csv",0,0,0,"l",10,10,"a","a",799.8057003133,799.8057003133,12,NA,239469.728500117,NA,206107.907900121,NA,240270.400899928,239161.562900059,16494.9489999563,NA,NA,4066.48619985208,NA,NA,239168.853700161,238632.436300162,NA,236634.320999961,NA,206201.156400144,4878.91309987754,33120.3319998458,45220.4132000916,62312.0253998786,81173.9107999019,112738.919899799,206201.2618999,240270.472900011,NA,223006.156399846,231836.620400194,NA,NA,NA,238331.628699787,NA,NA,NA,NA,NA,NA,NA,206107.840599958,206193.523699883,NA,236634.253100026,NA,NA,238626.979200169,4066.59650010988,239469.895499758,4066.62099994719,239161.482799798,206107.021499891,NA,NA,4862.26380011067,NA,NA,122306.141799781,14,636931.722801179,16,1,0,1,22,"geographie",5,3,3,3,3,3
88.2352941176471,96,37503.8444529945,"a","accuracy","es2000he","1","o","l","1","0","0",8,1,700,"Wed Apr 12 10:09:57 2023",0,"sehr leicht","speed","Experiment.osexp","Bild_s4_o_22.png",1080,"he",2000,"es","blaue","C:/Users/steff/Documents/Universität/Master Psychologie/SS 2022/Masterarbeit/Experiment/subject-12.csv",0,0,0,"l",15,15,"l","l",633.632899727672,633.632899727672,12,NA,241475.992700085,NA,206107.907900121,NA,242110.485599842,241167.681799736,16494.9489999563,NA,NA,4066.48619985208,NA,NA,241174.945699982,240599.927700125,NA,240673.078899737,NA,206201.156400144,4878.91309987754,33120.3319998458,45220.4132000916,62312.0253998786,81173.9107999019,112738.919899799,206201.2618999,242110.557400156,NA,223006.156399846,231836.620400194,NA,NA,NA,240299.240899738,NA,NA,NA,NA,NA,NA,NA,206107.840599958,206193.523699883,NA,240673.008800019,NA,NA,240594.497499987,4066.59650010988,241476.077400148,4066.62099994719,241167.603100184,206107.021499891,NA,NA,4862.26380011067,NA,NA,122306.141799781,15,637565.355700906,17,1,0,1,22,"geographie",5,3,3,3,3,3
88.8888888888889,96,35472.9112222687,"a","accuracy","es2000he","1","o","l","1","0","0",9,1,700,"Wed Apr 12 10:09:57 2023",0,"sehr leicht","speed","Experiment.osexp","Bild_s4_o_19.png",1080,"he",2000,"es","blaue","C:/Users/steff/Documents/Universität/Master Psychologie/SS 2022/Masterarbeit/Experiment/subject-12.csv",0,0,0,"l",20,20,"l","l",947.046299930662,947.046299930662,12,NA,243274.594400078,NA,206107.907900121,NA,244222.463400103,242967.770500109,16494.9489999563,NA,NA,4066.48619985208,NA,NA,242974.501700141,242431.557999924,NA,240673.078899737,NA,206201.156400144,4878.91309987754,33120.3319998458,45220.4132000916,62312.0253998786,81173.9107999019,112738.919899799,206201.2618999,244222.536500078,NA,223006.156399846,231836.620400194,NA,NA,NA,242130.953699816,NA,NA,NA,NA,NA,NA,NA,206107.840599958,206193.523699883,NA,240673.008800019,NA,NA,242426.223400049,4066.59650010988,243274.682300165,4066.62099994719,242967.68500004,206107.021499891,NA,NA,4862.26380011067,NA,NA,122306.141799781,16,638512.402000837,18,1,0,1,22,"geographie",5,3,3,3,3,3
89.4736842105263,96,33648.9970158344,"a","accuracy","es2000he","1","o","l","1","0","0",10,1,700,"Wed Apr 12 10:09:57 2023",1,"eher leicht","speed","Experiment.osexp","Bild_s3_o_24.png",1080,"he",2000,"es","blaue","C:/Users/steff/Documents/Universität/Master Psychologie/SS 2022/Masterarbeit/Experiment/subject-12.csv",0,0,0,"l",25,25,"l","l",818.541300017387,818.541300017387,12,NA,245418.955199886,NA,206107.907900121,NA,246238.352899905,245110.878100153,16494.9489999563,NA,NA,4066.48619985208,NA,NA,245118.16419987,244535.233399831,NA,244608.760700095,NA,206201.156400144,4878.91309987754,33120.3319998458,45220.4132000916,62312.0253998786,81173.9107999019,112738.919899799,206201.2618999,246238.423899747,NA,223006.156399846,231836.620400194,NA,NA,NA,244234.265400097,NA,NA,NA,NA,NA,NA,NA,206107.840599958,206193.523699883,NA,244608.687900007,NA,NA,244529.74480018,4066.59650010988,245419.140799902,4066.62099994719,245110.795099754,206107.021499891,NA,NA,4862.26380011067,NA,NA,122306.141799781,17,639330.943300854,19,1,0,1,22,"geographie",5,3,3,3,3,3
90,96,31996.7455700506,"a","accuracy","es2000he","1","b","a","1","0","0",11,1,700,"Wed Apr 12 10:09:57 2023",1,"eher leicht","speed","Experiment.osexp","Bild_s3_b_2.png",1080,"he",2000,"es","blaue","C:/Users/steff/Documents/Universität/Master Psychologie/SS 2022/Masterarbeit/Experiment/subject-12.csv",0,0,0,"l",30,30,"a","a",603.968100156635,603.968100156635,12,NA,247409.509699792,NA,206107.907900121,NA,248014.256400056,247101.576199755,16494.9489999563,NA,NA,4066.48619985208,NA,NA,247108.625799883,246568.468499929,NA,244608.760700095,NA,206201.156400144,4878.91309987754,33120.3319998458,45220.4132000916,62312.0253998786,81173.9107999019,112738.919899799,206201.2618999,248014.326199889,NA,223006.156399846,231836.620400194,NA,NA,NA,246267.803499941,NA,NA,NA,NA,NA,NA,NA,206107.840599958,206193.523699883,NA,244608.687900007,NA,NA,246563.092600089,4066.59650010988,247409.713299945,4066.62099994719,247101.49609996,206107.021499891,NA,NA,4862.26380011067,NA,NA,122306.141799781,18,639934.911401011,20,1,0,1,22,"geographie",5,3,3,3,3,3
90.4761904761905,96,30491.1709667095,"a","accuracy","es2000he","1","o","l","1","0","0",12,1,700,"Wed Apr 12 10:09:57 2023",2,"eher schwer","speed","Experiment.osexp","Bild_s2_o_1.png",1080,"he",2000,"es","blaue","C:/Users/steff/Documents/Universität/Master Psychologie/SS 2022/Masterarbeit/Experiment/subject-12.csv",0,0,0,"l",35,35,"l","l",379.678899887949,379.678899887949,12,NA,249217.814799864,NA,206107.907900121,NA,249598.233399913,248909.622900188,16494.9489999563,NA,NA,4066.48619985208,NA,NA,248916.970000137,248336.385400034,NA,248415.316700004,NA,206201.156400144,4878.91309987754,33120.3319998458,45220.4132000916,62312.0253998786,81173.9107999019,112738.919899799,206201.2618999,249598.307500128,NA,223006.156399846,231836.620400194,NA,NA,NA,248035.651599988,NA,NA,NA,NA,NA,NA,NA,206107.840599958,206193.523699883,NA,248415.239300113,NA,NA,248330.94390016,4066.59650010988,249218.006399926,4066.62099994719,248909.544500057,206107.021499891,NA,NA,4862.26380011067,NA,NA,122306.141799781,19,640314.590300899,21,1,0,1,22,"geographie",5,3,3,3,3,3
90.9090909090909,96,29131.1996454923,"a","accuracy","es2000he","1","o","l","1","0","0",13,1,700,"Wed Apr 12 10:09:57 2023",2,"eher schwer","speed","Experiment.osexp","Bild_s2_o_17.png",1080,"he",2000,"es","blaue","C:/Users/steff/Documents/Universität/Master Psychologie/SS 2022/Masterarbeit/Experiment/subject-12.csv",0,0,0,"l",40,40,"l","l",571.801899932325,571.801899932325,12,NA,250769.670300186,NA,206107.907900121,NA,251342.25999983,250460.950799752,16494.9489999563,NA,NA,4066.48619985208,NA,NA,250468.054899946,249928.68020013,NA,248415.316700004,NA,206201.156400144,4878.91309987754,33120.3319998458,45220.4132000916,62312.0253998786,81173.9107999019,112738.919899799,206201.2618999,251342.331300024,NA,223006.156399846,231836.620400194,NA,NA,NA,249628.060299903,NA,NA,NA,NA,NA,NA,NA,206107.840599958,206193.523699883,NA,248415.239300113,NA,NA,249923.332499806,4066.59650010988,250769.879300147,4066.62099994719,250460.87160008,206107.021499891,NA,NA,4862.26380011067,NA,NA,122306.141799781,20,640886.392200831,22,1,0,1,22,"geographie",5,3,3,3,3,3
91.304347826087,96,27890.2670304777,"a","accuracy","es2000he","1","o","l","1","0","0",14,1,700,"Wed Apr 12 10:09:57 2023",3,"sehr schwer","speed","Experiment.osexp","Bild_s1_o_13.png",1080,"he",2000,"es","blaue","C:/Users/steff/Documents/Universität/Master Psychologie/SS 2022/Masterarbeit/Experiment/subject-12.csv",0,0,0,"l",45,45,"l","l",589.749500155449,589.749500155449,12,NA,252575.848400127,NA,206107.907900121,NA,253166.443800088,252267.840899993,16494.9489999563,NA,NA,4066.48619985208,NA,NA,252274.696699809,251672.643200029,NA,251745.000099763,NA,206201.156400144,4878.91309987754,33120.3319998458,45220.4132000916,62312.0253998786,81173.9107999019,112738.919899799,206201.2618999,253166.517199948,NA,223006.156399846,231836.620400194,NA,NA,NA,251371.990500018,NA,NA,NA,NA,NA,NA,NA,206107.840599958,206193.523699883,NA,251744.928400032,NA,NA,251667.219100054,4066.59650010988,252575.935199857,4066.62099994719,252267.762199976,206107.021499891,NA,NA,4862.26380011067,NA,NA,122306.141799781,21,641476.141700987,23,1,0,1,22,"geographie",5,3,3,3,3,3
91.6666666666667,96,26742.0698291971,"a","accuracy","es2000he","1","b","a","1","0","0",15,1,700,"Wed Apr 12 10:09:57 2023",3,"sehr schwer","speed","Experiment.osexp","Bild_s1_b_4.png",1080,"he",2000,"es","blaue","C:/Users/steff/Documents/Universität/Master Psychologie/SS 2022/Masterarbeit/Experiment/subject-12.csv",0,0,0,"l",50,50,"a","a",333.534199744463,333.534199744463,12,NA,254323.281399906,NA,206107.907900121,NA,254657.609099988,254014.785000123,16494.9489999563,NA,NA,4066.48619985208,NA,NA,254022.029600106,253478.997000027,NA,251745.000099763,NA,206201.156400144,4878.91309987754,33120.3319998458,45220.4132000916,62312.0253998786,81173.9107999019,112738.919899799,206201.2618999,254657.688399777,NA,223006.156399846,231836.620400194,NA,NA,NA,253178.176200017,NA,NA,NA,NA,NA,NA,NA,206107.840599958,206193.523699883,NA,251744.928400032,NA,NA,253473.667500075,4066.59650010988,254323.476999998,4066.62099994719,254014.705599751,206107.021499891,NA,NA,4862.26380011067,NA,NA,122306.141799781,22,641809.675900731,24,1,0,1,22,"geographie",5,3,3,3,3,3
50,96,3630.21630002186,"a","speed","es2000he","0","b","a","0","0","0",16,2,700,"Wed Apr 12 10:09:57 2023",3,"sehr schwer","speed","Experiment.osexp","Bild_s1_b_17.png",1080,"he",2000,"es","blaue","C:/Users/steff/Documents/Universität/Master Psychologie/SS 2022/Masterarbeit/Experiment/subject-12.csv",0,1,0,"l",40,-10,"l","l",599.851800128818,599.851800128818,12,NA,267717.644600198,NA,206107.907900121,260126.837300137,268318.085699808,267409.036099911,16494.9489999563,NA,NA,4066.48619985208,NA,255131.857799832,267416.576600168,254992.642799858,NA,266911.226499826,NA,260248.931100126,4878.91309987754,33120.3319998458,45220.4132000916,62312.0253998786,81173.9107999019,112738.919899799,260249.07999998,268318.183999974,NA,266910.320200026,231836.620400194,NA,NA,NA,254692.002899945,NA,NA,NA,NA,NA,NA,NA,206107.840599958,260241.860399954,NA,266911.182899959,NA,NA,254987.272100057,4066.59650010988,267717.807999812,4066.62099994719,267408.85249991,206107.021499891,NA,NA,4862.26380011067,NA,NA,122306.141799781,1,7260.43260004371,2,1,50,1,22,"geographie",5,3,3,3,3,3
66.6666666666667,96,2606.11273332809,"a","speed","es2000he","1","o","l","0","1","0",17,2,700,"Wed Apr 12 10:09:57 2023",3,"sehr schwer","speed","Experiment.osexp","Bild_s1_o_24.png",1080,"he",2000,"es","blaue","C:/Users/steff/Documents/Universität/Master Psychologie/SS 2022/Masterarbeit/Experiment/subject-12.csv",0,0,0,"l",45,-5,"l","l",557.905599940568,557.905599940568,12,NA,269471.656499896,NA,206107.907900121,260126.837300137,270030.234999955,269164.242899977,16494.9489999563,NA,NA,4066.48619985208,NA,255131.857799832,269171.449900139,268640.38820006,NA,266911.226499826,NA,260248.931100126,4878.91309987754,33120.3319998458,45220.4132000916,62312.0253998786,81173.9107999019,112738.919899799,260249.07999998,270030.307100154,NA,266910.320200026,231836.620400194,NA,NA,268339.996499941,254692.002899945,NA,NA,NA,NA,NA,NA,NA,206107.840599958,260241.860399954,NA,266911.182899959,NA,NA,268634.842599742,4066.59650010988,269471.739099827,4066.62099994719,269164.164099842,206107.021499891,NA,NA,4862.26380011067,NA,NA,122306.141799781,2,7818.33819998428,3,1,50,1,22,"geographie",5,3,3,3,3,3
75,96,2047.66595002729,"a","speed","es2000he","1","b","a","0","1","0",18,2,700,"Wed Apr 12 10:09:57 2023",2,"eher schwer","speed","Experiment.osexp","Bild_s2_b_4.png",1080,"he",2000,"es","blaue","C:/Users/steff/Documents/Universität/Master Psychologie/SS 2022/Masterarbeit/Experiment/subject-12.csv",0,0,0,"l",50,0,"a","a",372.325600124896,372.325600124896,12,NA,271225.149199832,NA,206107.907900121,260126.837300137,271598.261700012,270917.293500155,16494.9489999563,NA,NA,4066.48619985208,NA,255131.857799832,270924.446399789,270354.506799951,NA,270426.658499986,NA,260248.931100126,4878.91309987754,33120.3319998458,45220.4132000916,62312.0253998786,81173.9107999019,112738.919899799,260249.07999998,271598.33299974,NA,266910.320200026,231836.620400194,NA,NA,268339.996499941,254692.002899945,270053.870699834,NA,NA,NA,NA,NA,NA,206107.840599958,260241.860399954,NA,270426.585199777,NA,NA,270349.036300089,4066.59650010988,271225.327199791,4066.62099994719,270917.216199916,206107.021499891,NA,NA,4862.26380011067,NA,NA,122306.141799781,3,8190.66380010918,4,1,50,1,22,"geographie",5,3,3,3,3,3
80,96,1711.3346000202,"a","speed","es2000he","1","o","l","0","1","0",19,2,700,"Wed Apr 12 10:09:57 2023",2,"eher schwer","speed","Experiment.osexp","Bild_s2_o_19.png",1080,"he",2000,"es","blaue","C:/Users/steff/Documents/Universität/Master Psychologie/SS 2022/Masterarbeit/Experiment/subject-12.csv",0,0,0,"l",55,5,"l","l",366.009199991822,366.009199991822,12,NA,272735.532899853,NA,206107.907900121,260126.837300137,273102.390099782,272427.040199749,16494.9489999563,NA,NA,4066.48619985208,NA,255131.857799832,272433.951700106,271917.99960006,NA,270426.658499986,NA,260248.931100126,4878.91309987754,33120.3319998458,45220.4132000916,62312.0253998786,81173.9107999019,112738.919899799,260249.07999998,273102.463100106,NA,266910.320200026,231836.620400194,NA,NA,268339.996499941,254692.002899945,271617.283599917,NA,NA,NA,NA,NA,NA,206107.840599958,260241.860399954,NA,270426.585199777,NA,NA,271912.458099891,4066.59650010988,272735.65089982,4066.62099994719,272426.963199861,206107.021499891,NA,NA,4862.26380011067,NA,NA,122306.141799781,4,8556.673000101,5,1,50,1,22,"geographie",5,3,3,3,3,3
83.3333333333333,96,1487.38196662938,"a","speed","es2000he","1","o","l","0","1","0",20,2,700,"Wed Apr 12 10:09:57 2023",1,"eher leicht","speed","Experiment.osexp","Bild_s3_o_16.png",1080,"he",2000,"es","blaue","C:/Users/steff/Documents/Universität/Master Psychologie/SS 2022/Masterarbeit/Experiment/subject-12.csv",0,0,0,"l",60,10,"l","l",367.618799675256,367.618799675256,12,NA,274301.844399888,NA,206107.907900121,260126.837300137,274670.259099919,273994.129099883,16494.9489999563,NA,NA,4066.48619985208,NA,255131.857799832,274001.328699756,273429.728999734,NA,273506.55179983,NA,260248.931100126,4878.91309987754,33120.3319998458,45220.4132000916,62312.0253998786,81173.9107999019,112738.919899799,260249.07999998,274670.338000171,NA,266910.320200026,231836.620400194,NA,NA,268339.996499941,254692.002899945,273128.693299834,NA,NA,NA,NA,NA,NA,206107.840599958,260241.860399954,NA,273506.475700065,NA,NA,273424.199800007,4066.59650010988,274302.035300061,4066.62099994719,273994.04959986,206107.021499891,NA,NA,4862.26380011067,NA,NA,122306.141799781,5,8924.29179977626,6,1,50,1,22,"geographie",5,3,3,3,3,3
71.4285714285714,96,1356.43079996641,"a","speed","es2000he","0","b","a","0","0","0",21,2,700,"Wed Apr 12 10:09:57 2023",1,"eher leicht","speed","Experiment.osexp","Bild_s3_b_22.png",1080,"he",2000,"es","blaue","C:/Users/steff/Documents/Universität/Master Psychologie/SS 2022/Masterarbeit/Experiment/subject-12.csv",0,1,0,"l",50,0,"l","l",570.723799988627,570.723799988627,12,NA,275842.737399973,NA,206107.907900121,260126.837300137,276414.21449976,275534.79389986,16494.9489999563,NA,NA,4066.48619985208,NA,255131.857799832,275542.117400095,274997.71759985,NA,273506.55179983,NA,260248.931100126,4878.91309987754,33120.3319998458,45220.4132000916,62312.0253998786,81173.9107999019,112738.919899799,260249.07999998,276414.310799912,NA,266910.320200026,231836.620400194,NA,NA,268339.996499941,254692.002899945,274697.261900175,NA,NA,NA,NA,NA,NA,206107.840599958,260241.860399954,NA,273506.475700065,NA,NA,274992.398200091,4066.59650010988,275842.928700149,4066.62099994719,275534.715000074,206107.021499891,NA,NA,4862.26380011067,NA,NA,122306.141799781,5,9495.01559976488,7,1,50,1,22,"geographie",5,3,3,3,3,3
75,96,1254.05341247097,"a","speed","es2000he","1","o","l","0","1","0",22,2,700,"Wed Apr 12 10:09:57 2023",0,"sehr leicht","speed","Experiment.osexp","Bild_s4_o_23.png",1080,"he",2000,"es","blaue","C:/Users/steff/Documents/Universität/Master Psychologie/SS 2022/Masterarbeit/Experiment/subject-12.csv",0,0,0,"l",55,5,"l","l",537.411700002849,537.411700002849,12,NA,277652.155300137,NA,206107.907900121,260126.837300137,278190.110200085,277344.095400069,16494.9489999563,NA,NA,4066.48619985208,NA,255131.857799832,277350.991299842,276770.515699871,NA,276842.988399789,NA,260248.931100126,4878.91309987754,33120.3319998458,45220.4132000916,62312.0253998786,81173.9107999019,112738.919899799,260249.07999998,278190.189499874,NA,266910.320200026,231836.620400194,NA,NA,276469.730400015,254692.002899945,274697.261900175,NA,NA,NA,NA,NA,NA,206107.840599958,260241.860399954,NA,276842.917900067,NA,NA,276765.118599869,4066.59650010988,277652.248200029,4066.62099994719,277344.016499817,206107.021499891,NA,NA,4862.26380011067,NA,NA,122306.141799781,6,10032.4272997677,8,1,50,1,22,"geographie",5,3,3,3,3,3
77.7777777777778,96,1162.89531108406,"a","speed","es2000he","1","b","a","0","1","0",23,2,700,"Wed Apr 12 10:09:57 2023",0,"sehr leicht","speed","Experiment.osexp","Bild_s4_b_21.png",1080,"he",2000,"es","blaue","C:/Users/steff/Documents/Universität/Master Psychologie/SS 2022/Masterarbeit/Experiment/subject-12.csv",0,0,0,"l",60,10,"a","a",433.630499988794,433.630499988794,12,NA,279355.948899873,NA,206107.907900121,260126.837300137,279790.204599965,279048.061899841,16494.9489999563,NA,NA,4066.48619985208,NA,255131.857799832,279055.360400118,278506.202400196,NA,276842.988399789,NA,260248.931100126,4878.91309987754,33120.3319998458,45220.4132000916,62312.0253998786,81173.9107999019,112738.919899799,260249.07999998,279790.288299788,NA,266910.320200026,231836.620400194,NA,NA,276469.730400015,254692.002899945,278205.520700198,NA,NA,NA,NA,NA,NA,206107.840599958,260241.860399954,NA,276842.917900067,NA,NA,278500.839000102,4066.59650010988,279356.032900047,4066.62099994719,279047.983599827,206107.021499891,NA,NA,4862.26380011067,NA,NA,122306.141799781,7,10466.0577997565,9,1,50,1,22,"geographie",5,3,3,3,3,3
80,96,1101.5166899655,"a","speed","es2000he","1","o","l","0","1","0",24,2,700,"Wed Apr 12 10:09:57 2023",0,"sehr leicht","speed","Experiment.osexp","Bild_s4_o_1.png",1080,"he",2000,"es","blaue","C:/Users/steff/Documents/Universität/Master Psychologie/SS 2022/Masterarbeit/Experiment/subject-12.csv",0,0,0,"l",65,15,"l","l",549.109099898487,549.109099898487,12,NA,281000.450800173,NA,206107.907900121,260126.837300137,281550.634100102,280692.152299918,16494.9489999563,NA,NA,4066.48619985208,NA,255131.857799832,280699.57889989,280119.48730005,NA,280193.0629001,NA,260248.931100126,4878.91309987754,33120.3319998458,45220.4132000916,62312.0253998786,81173.9107999019,112738.919899799,260249.07999998,281550.70939986,NA,266910.320200026,231836.620400194,NA,NA,276469.730400015,254692.002899945,279818.993899971,NA,NA,NA,NA,NA,NA,206107.840599958,260241.860399954,NA,280192.989999894,NA,NA,280114.148399793,4066.59650010988,281000.543300062,4066.62099994719,280692.072600126,206107.021499891,NA,NA,4862.26380011067,NA,NA,122306.141799781,8,11015.166899655,10,1,50,1,22,"geographie",5,3,3,3,3,3
81.8181818181818,96,1058.75119088556,"a","speed","es2000he","1","o","l","0","1","0",25,2,700,"Wed Apr 12 10:09:57 2023",0,"sehr leicht","speed","Experiment.osexp","Bild_s4_o_2.png",1080,"he",2000,"es","blaue","C:/Users/steff/Documents/Universität/Master Psychologie/SS 2022/Masterarbeit/Experiment/subject-12.csv",0,0,0,"l",70,20,"l","l",631.096200086176,631.096200086176,12,NA,282726.46899987,NA,206107.907900121,260126.837300137,283358.258000109,282418.494599871,16494.9489999563,NA,NA,4066.48619985208,NA,255131.857799832,282425.405899994,281863.268599845,NA,280193.0629001,NA,260248.931100126,4878.91309987754,33120.3319998458,45220.4132000916,62312.0253998786,81173.9107999019,112738.919899799,260249.07999998,283358.338200022,NA,266910.320200026,231836.620400194,NA,NA,276469.730400015,254692.002899945,281562.523699831,NA,NA,NA,NA,NA,NA,206107.840599958,260241.860399954,NA,280192.989999894,NA,NA,281857.929899823,4066.59650010988,282726.553199813,4066.62099994719,282418.414100073,206107.021499891,NA,NA,4862.26380011067,NA,NA,122306.141799781,9,11646.2630997412,11,1,50,1,22,"geographie",5,3,3,3,3,3
83.3333333333333,96,1004.93913334018,"a","speed","es2000he","1","o","l","0","1","0",26,2,700,"Wed Apr 12 10:09:57 2023",1,"eher leicht","speed","Experiment.osexp","Bild_s3_o_15.png",1080,"he",2000,"es","blaue","C:/Users/steff/Documents/Universität/Master Psychologie/SS 2022/Masterarbeit/Experiment/subject-12.csv",0,0,0,"l",75,25,"l","l",413.006500340998,413.006500340998,12,NA,284576.556799933,NA,206107.907900121,260126.837300137,284990.226299968,284268.457700033,16494.9489999563,NA,NA,4066.48619985208,NA,255131.857799832,284275.889600161,283687.583699822,NA,283760.123999789,NA,260248.931100126,4878.91309987754,33120.3319998458,45220.4132000916,62312.0253998786,81173.9107999019,112738.919899799,260249.07999998,284990.30129984,NA,266910.320200026,231836.620400194,NA,NA,276469.730400015,254692.002899945,283386.655900162,NA,NA,NA,NA,NA,NA,206107.840599958,260241.860399954,NA,283760.052400175,NA,NA,283682.238599751,4066.59650010988,284576.643299777,4066.62099994719,284268.377199769,206107.021499891,NA,NA,4862.26380011067,NA,NA,122306.141799781,10,12059.2696000822,12,1,50,1,22,"geographie",5,3,3,3,3,3
84.6153846153846,96,967.656230768905,"a","speed","es2000he","1","o","l","0","1","0",27,2,700,"Wed Apr 12 10:09:57 2023",1,"eher leicht","speed","Experiment.osexp","Bild_s3_o_7.png",1080,"he",2000,"es","blaue","C:/Users/steff/Documents/Universität/Master Psychologie/SS 2022/Masterarbeit/Experiment/subject-12.csv",0,0,0,"l",80,30,"l","l",520.261399913579,520.261399913579,12,NA,286165.29610008,NA,206107.907900121,260126.837300137,286686.253599823,285855.639399961,16494.9489999563,NA,NA,4066.48619985208,NA,255131.857799832,285862.503000069,285321.597000118,NA,283760.123999789,NA,260248.931100126,4878.91309987754,33120.3319998458,45220.4132000916,62312.0253998786,81173.9107999019,112738.919899799,260249.07999998,286686.328399926,NA,266910.320200026,231836.620400194,NA,NA,276469.730400015,254692.002899945,285018.93609995,NA,NA,NA,NA,NA,NA,206107.840599958,260241.860399954,NA,283760.052400175,NA,NA,285314.003400039,4066.59650010988,286165.386300068,4066.62099994719,285855.561399832,206107.021499891,NA,NA,4862.26380011067,NA,NA,122306.141799781,11,12579.5309999958,13,1,50,1,22,"geographie",5,3,3,3,3,3
85.7142857142857,96,924.187342869118,"a","speed","es2000he","1","o","l","0","1","0",28,2,700,"Wed Apr 12 10:09:57 2023",2,"eher schwer","speed","Experiment.osexp","Bild_s2_o_4.png",1080,"he",2000,"es","blaue","C:/Users/steff/Documents/Universität/Master Psychologie/SS 2022/Masterarbeit/Experiment/subject-12.csv",0,0,0,"l",85,35,"l","l",359.091800171882,359.091800171882,12,NA,287894.247800112,NA,206107.907900121,260126.837300137,288254.391599912,287586.094799917,16494.9489999563,NA,NA,4066.48619985208,NA,255131.857799832,287593.470999971,287003.298199736,NA,287080.627200194,NA,260248.931100126,4878.91309987754,33120.3319998458,45220.4132000916,62312.0253998786,81173.9107999019,112738.919899799,260249.07999998,288254.468699917,NA,266910.320200026,231836.620400194,NA,NA,276469.730400015,254692.002899945,286701.501899865,NA,NA,NA,NA,NA,NA,206107.840599958,260241.860399954,NA,287080.553099979,NA,NA,286996.686100028,4066.59650010988,287894.555099774,4066.62099994719,287586.017299909,206107.021499891,NA,NA,4862.26380011067,NA,NA,122306.141799781,12,12938.6228001676,14,1,50,1,22,"geographie",5,3,3,3,3,3
86.6666666666667,96,885.802546671281,"a","speed","es2000he","1","b","a","0","1","0",29,2,700,"Wed Apr 12 10:09:57 2023",2,"eher schwer","speed","Experiment.osexp","Bild_s2_b_16.png",1080,"he",2000,"es","blaue","C:/Users/steff/Documents/Universität/Master Psychologie/SS 2022/Masterarbeit/Experiment/subject-12.csv",0,0,0,"l",90,40,"a","a",348.415399901569,348.415399901569,12,NA,289425.03709998,NA,206107.907900121,260126.837300137,289774.24830012,289117.114599794,16494.9489999563,NA,NA,4066.48619985208,NA,255131.857799832,289124.304300174,288578.240199946,NA,287080.627200194,NA,260248.931100126,4878.91309987754,33120.3319998458,45220.4132000916,62312.0253998786,81173.9107999019,112738.919899799,260249.07999998,289774.32340011,NA,266910.320200026,231836.620400194,NA,NA,276469.730400015,254692.002899945,288277.405799832,NA,NA,NA,NA,NA,NA,206107.840599958,260241.860399954,NA,287080.553099979,NA,NA,288572.851399891,4066.59650010988,289425.238300115,4066.62099994719,289117.035199888,206107.021499891,NA,NA,4862.26380011067,NA,NA,122306.141799781,13,13287.0382000692,15,1,50,1,22,"geographie",5,3,3,3,3,3
81.25,96,873.812225006986,"a","speed","es2000he","0","b","a","0","0","0",30,2,700,"Wed Apr 12 10:09:57 2023",3,"sehr schwer","speed","Experiment.osexp","Bild_s1_b_5.png",1080,"he",2000,"es","blaue","C:/Users/steff/Documents/Universität/Master Psychologie/SS 2022/Masterarbeit/Experiment/subject-12.csv",0,1,0,"l",80,30,"l","l",693.957400042564,693.957400042564,12,NA,290967.609600164,NA,206107.907900121,260126.837300137,291662.239399739,290659.05349981,16494.9489999563,NA,NA,4066.48619985208,NA,255131.857799832,290666.306899861,290090.009999927,NA,290162.789499853,NA,260248.931100126,4878.91309987754,33120.3319998458,45220.4132000916,62312.0253998786,81173.9107999019,112738.919899799,260249.07999998,291662.336399779,NA,266910.320200026,231836.620400194,NA,NA,276469.730400015,254692.002899945,289789.33409974,NA,NA,NA,NA,NA,NA,206107.840599958,260241.860399954,NA,290162.714699749,NA,NA,290084.550300147,4066.59650010988,290967.689800076,4066.62099994719,290658.969799988,206107.021499891,NA,NA,4862.26380011067,NA,NA,122306.141799781,13,13980.9956001118,16,1,50,1,22,"geographie",5,3,3,3,3,3
76.4705882352941,96,890.56676470072,"a","speed","es2000he","0","b","a","0","0","0",31,2,700,"Wed Apr 12 10:09:57 2023",3,"sehr schwer","speed","Experiment.osexp","Bild_s1_b_16.png",1080,"he",2000,"es","blaue","C:/Users/steff/Documents/Universität/Master Psychologie/SS 2022/Masterarbeit/Experiment/subject-12.csv",0,0,1,"l",70,20,"l","l",1158.63939980045,1158.63939980045,12,NA,292822.788599879,NA,206107.907900121,260126.837300137,293982.133199926,292514.776399825,16494.9489999563,NA,NA,4066.48619985208,NA,255131.857799832,292522.184399888,291978.006899823,NA,290162.789499853,NA,260248.931100126,4878.91309987754,33120.3319998458,45220.4132000916,62312.0253998786,81173.9107999019,112738.919899799,260249.07999998,293982.231900096,NA,266910.320200026,231836.620400194,NA,NA,291677.733100019,254692.002899945,289789.33409974,NA,NA,NA,NA,NA,NA,206107.840599958,260241.860399954,NA,290162.714699749,NA,NA,291972.589400131,4066.59650010988,292822.99630018,4066.62099994719,292514.694400132,206107.021499891,NA,NA,4862.26380011067,NA,NA,122306.141799781,13,15139.6349999122,17,1,50,1,22,"geographie",5,3,3,3,3,3
100,96,24797.0890666669,"a","speed","es2000he","1","b","a","0","0","1",32,3,700,"Wed Apr 12 10:09:57 2023",3,"sehr schwer","speed","Experiment.osexp","Bild_s1_b_24.png",1080,"he",2000,"es","blaue","C:/Users/steff/Documents/Universität/Master Psychologie/SS 2022/Masterarbeit/Experiment/subject-12.csv",0,0,0,"l",-10,-10,"a","a",842.5014000386,842.5014000386,12,NA,334786.94920009,331459.837500006,206107.907900121,299455.011699814,335630.226599984,334478.925799951,16494.9489999563,299525.626699906,NA,4066.48619985208,NA,294452.048299834,334486.321600154,294310.561200138,333951.16539998,290162.789499853,331557.252499741,260248.931100126,4878.91309987754,33120.3319998458,45220.4132000916,62312.0253998786,81173.9107999019,112738.919899799,331557.391999755,335630.323700141,333950.329300016,266910.320200026,231836.620400194,NA,294010.090199765,291677.733100019,254692.002899945,289789.33409974,NA,NA,NA,NA,NA,331550.23009982,206107.840599958,260241.860399954,333951.12389978,290162.714699749,331459.771099966,331406.330700032,294305.165200029,4066.59650010988,334787.107999902,4066.62099994719,334478.722100146,206107.021499891,299521.36129979,299488.238799851,4862.26380011067,NA,NA,122306.141799781,3,74391.2672000006,3,0,70,1,22,"geographie",5,3,3,3,3,3
100,96,18750.6526249927,"a","speed","es2000he","1","o","l","0","1","0",33,3,700,"Wed Apr 12 10:09:57 2023",3,"sehr schwer","speed","Experiment.osexp","Bild_s1_o_8.png",1080,"he",2000,"es","blaue","C:/Users/steff/Documents/Universität/Master Psychologie/SS 2022/Masterarbeit/Experiment/subject-12.csv",0,0,0,"l",-5,-5,"l","l",611.343299970031,611.343299970031,12,NA,336794.078299776,331459.837500006,206107.907900121,299455.011699814,337406.224200036,336486.100699753,16494.9489999563,299525.626699906,NA,4066.48619985208,NA,294452.048299834,336493.247800041,335947.853299789,333951.16539998,290162.789499853,331557.252499741,260248.931100126,4878.91309987754,33120.3319998458,45220.4132000916,62312.0253998786,81173.9107999019,112738.919899799,331557.391999755,337406.301400159,333950.329300016,266910.320200026,231836.620400194,335647.125599906,294010.090199765,291677.733100019,254692.002899945,289789.33409974,NA,NA,NA,NA,NA,331550.23009982,206107.840599958,260241.860399954,333951.12389978,290162.714699749,331459.771099966,331406.330700032,335942.412899807,4066.59650010988,336794.26629981,4066.62099994719,336486.021999735,206107.021499891,299521.36129979,299488.238799851,4862.26380011067,NA,NA,122306.141799781,4,75002.6104999706,4,0,70,1,22,"geographie",5,3,3,3,3,3
100,96,15125.5216800608,"a","speed","es2000he","1","o","l","0","1","0",34,3,700,"Wed Apr 12 10:09:57 2023",3,"sehr schwer","speed","Experiment.osexp","Bild_s1_o_20.png",1080,"he",2000,"es","blaue","C:/Users/steff/Documents/Universität/Master Psychologie/SS 2022/Masterarbeit/Experiment/subject-12.csv",0,0,0,"l",0,0,"l","l",624.997900333256,624.997900333256,12,NA,338556.490200106,331459.837500006,206107.907900121,299455.011699814,339182.182999793,338248.594000004,16494.9489999563,299525.626699906,NA,4066.48619985208,NA,294452.048299834,338255.458599888,337721.504800022,333951.16539998,290162.789499853,331557.252499741,260248.931100126,4878.91309987754,33120.3319998458,45220.4132000916,62312.0253998786,81173.9107999019,112738.919899799,331557.391999755,339182.2581999,333950.329300016,266910.320200026,231836.620400194,335647.125599906,294010.090199765,291677.733100019,254692.002899945,337420.992500149,NA,NA,NA,NA,NA,331550.23009982,206107.840599958,260241.860399954,333951.12389978,290162.714699749,331459.771099966,331406.330700032,337716.049700044,4066.59650010988,338556.579399854,4066.62099994719,338248.516299762,206107.021499891,299521.36129979,299488.238799851,4862.26380011067,NA,NA,122306.141799781,5,75627.6084003039,5,0,70,1,22,"geographie",5,3,3,3,3,3
100,96,12665.541366674,"a","speed","es2000he","1","b","a","0","1","0",35,3,700,"Wed Apr 12 10:09:57 2023",3,"sehr schwer","speed","Experiment.osexp","Bild_s1_b_18.png",1080,"he",2000,"es","blaue","C:/Users/steff/Documents/Universität/Master Psychologie/SS 2022/Masterarbeit/Experiment/subject-12.csv",0,0,0,"l",5,5,"a","a",365.639799740165,365.639799740165,12,NA,340351.878699847,331459.837500006,206107.907900121,299455.011699814,340718.187999912,340043.521500193,16494.9489999563,299525.626699906,NA,4066.48619985208,NA,294452.048299834,340050.694100093,339510.987000074,333951.16539998,290162.789499853,331557.252499741,260248.931100126,4878.91309987754,33120.3319998458,45220.4132000916,62312.0253998786,81173.9107999019,112738.919899799,331557.391999755,340718.262999784,333950.329300016,266910.320200026,231836.620400194,335647.125599906,294010.090199765,291677.733100019,254692.002899945,339210.30500019,NA,NA,NA,NA,NA,331550.23009982,206107.840599958,260241.860399954,333951.12389978,290162.714699749,331459.771099966,331406.330700032,339505.544700194,4066.59650010988,340351.965200156,4066.62099994719,340043.441900052,206107.021499891,299521.36129979,299488.238799851,4862.26380011067,NA,NA,122306.141799781,6,75993.248200044,6,0,70,1,22,"geographie",5,3,3,3,3,3
100,96,10897.2207142838,"a","speed","es2000he","1","o","l","0","1","0",36,3,700,"Wed Apr 12 10:09:57 2023",3,"sehr schwer","speed","Experiment.osexp","Bild_s1_o_21.png",1080,"he",2000,"es","blaue","C:/Users/steff/Documents/Universität/Master Psychologie/SS 2022/Masterarbeit/Experiment/subject-12.csv",0,0,0,"l",10,10,"l","l",287.296799942851,287.296799942851,12,NA,341886.225999799,331459.837500006,206107.907900121,299455.011699814,342174.315299839,341578.407300171,16494.9489999563,299525.626699906,NA,4066.48619985208,NA,294452.048299834,341585.67060018,341046.943699941,333951.16539998,290162.789499853,331557.252499741,260248.931100126,4878.91309987754,33120.3319998458,45220.4132000916,62312.0253998786,81173.9107999019,112738.919899799,331557.391999755,342174.390099943,333950.329300016,266910.320200026,231836.620400194,335647.125599906,294010.090199765,291677.733100019,254692.002899945,340746.294999961,NA,NA,NA,NA,NA,331550.23009982,206107.840599958,260241.860399954,333951.12389978,290162.714699749,331459.771099966,331406.330700032,341041.460399982,4066.59650010988,341886.309499852,4066.62099994719,341578.273899853,206107.021499891,299521.36129979,299488.238799851,4862.26380011067,NA,NA,122306.141799781,7,76280.5449999869,7,0,70,1,22,"geographie",5,3,3,3,3,3
87.5,96,9614.80506247608,"a","speed","es2000he","0","b","a","0","0","0",37,3,700,"Wed Apr 12 10:09:57 2023",3,"sehr schwer","speed","Experiment.osexp","Bild_s1_b_5.png",1080,"he",2000,"es","blaue","C:/Users/steff/Documents/Universität/Master Psychologie/SS 2022/Masterarbeit/Experiment/subject-12.csv",0,1,0,"l",0,0,"l","l",637.895499821752,637.895499821752,12,NA,343343.616799917,331459.837500006,206107.907900121,299455.011699814,343982.164899819,343035.629999824,16494.9489999563,299525.626699906,NA,4066.48619985208,NA,294452.048299834,343042.796799913,342495.316899847,333951.16539998,290162.789499853,331557.252499741,260248.931100126,4878.91309987754,33120.3319998458,45220.4132000916,62312.0253998786,81173.9107999019,112738.919899799,331557.391999755,343982.262399979,333950.329300016,266910.320200026,231836.620400194,335647.125599906,294010.090199765,291677.733100019,254692.002899945,342194.917900022,NA,NA,NA,NA,NA,331550.23009982,206107.840599958,260241.860399954,333951.12389978,290162.714699749,331459.771099966,331406.330700032,342490.036999807,4066.59650010988,343343.701099977,4066.62099994719,343035.549399909,206107.021499891,299521.36129979,299488.238799851,4862.26380011067,NA,NA,122306.141799781,7,76918.4404998086,8,0,70,1,22,"geographie",5,3,3,3,3,3
77.7777777777778,96,8625.34001112605,"a","speed","es2000he","0","b","a","0","0","0",38,3,700,"Wed Apr 12 10:09:57 2023",3,"sehr schwer","speed","Experiment.osexp","Bild_s1_b_19.png",1080,"he",2000,"es","blaue","C:/Users/steff/Documents/Universität/Master Psychologie/SS 2022/Masterarbeit/Experiment/subject-12.csv",0,0,1,"l",-10,-10,"l","l",709.619600325823,709.619600325823,12,NA,345143.932899926,331459.837500006,206107.907900121,299455.011699814,345854.136699811,344835.296500009,16494.9489999563,299525.626699906,NA,4066.48619985208,NA,294452.048299834,344842.626799829,344300.906400196,333951.16539998,290162.789499853,331557.252499741,260248.931100126,4878.91309987754,33120.3319998458,45220.4132000916,62312.0253998786,81173.9107999019,112738.919899799,331557.391999755,345854.235100094,333950.329300016,266910.320200026,231836.620400194,335647.125599906,294010.090199765,344000.391500071,254692.002899945,342194.917900022,NA,NA,NA,NA,NA,331550.23009982,206107.840599958,260241.860399954,333951.12389978,290162.714699749,331459.771099966,331406.330700032,344295.474799816,4066.59650010988,345144.01469985,4066.62099994719,344835.213799961,206107.021499891,299521.36129979,299488.238799851,4862.26380011067,NA,NA,122306.141799781,7,77628.0601001345,9,0,70,1,22,"geographie",5,3,3,3,3,3
80,96,7797.05605003983,"a","speed","es2000he","1","b","a","0","1","0",39,3,700,"Wed Apr 12 10:09:57 2023",3,"sehr schwer","speed","Experiment.osexp","Bild_s1_b_20.png",1080,"he",2000,"es","blaue","C:/Users/steff/Documents/Universität/Master Psychologie/SS 2022/Masterarbeit/Experiment/subject-12.csv",0,0,0,"l",-5,-5,"a","a",342.500400263816,342.500400263816,12,NA,347015.015299898,331459.837500006,206107.907900121,299455.011699814,347358.323299792,346706.958199851,16494.9489999563,299525.626699906,NA,4066.48619985208,NA,294452.048299834,346713.864800055,346169.538000133,333951.16539998,290162.789499853,331557.252499741,260248.931100126,4878.91309987754,33120.3319998458,45220.4132000916,62312.0253998786,81173.9107999019,112738.919899799,331557.391999755,347358.409099746,333950.329300016,266910.320200026,231836.620400194,335647.125599906,345868.773699738,344000.391500071,254692.002899945,342194.917900022,NA,NA,NA,NA,NA,331550.23009982,206107.840599958,260241.860399954,333951.12389978,290162.714699749,331459.771099966,331406.330700032,346164.07170007,4066.59650010988,347015.10869991,4066.62099994719,346706.880600192,206107.021499891,299521.36129979,299488.238799851,4862.26380011067,NA,NA,122306.141799781,8,77970.5605003983,10,0,70,1,22,"geographie",5,3,3,3,3,3
81.8181818181818,96,7128.20790001107,"a","speed","es2000he","1","b","a","0","1","0",40,3,700,"Wed Apr 12 10:09:57 2023",3,"sehr schwer","speed","Experiment.osexp","Bild_s1_b_3.png",1080,"he",2000,"es","blaue","C:/Users/steff/Documents/Universität/Master Psychologie/SS 2022/Masterarbeit/Experiment/subject-12.csv",0,0,0,"l",0,0,"a","a",439.72639972344,439.72639972344,12,NA,348565.778700169,331459.837500006,206107.907900121,299455.011699814,349006.319799926,348257.668199949,16494.9489999563,299525.626699906,NA,4066.48619985208,NA,294452.048299834,348264.950199984,347674.255999736,347753.190999851,290162.789499853,331557.252499741,260248.931100126,4878.91309987754,33120.3319998458,45220.4132000916,62312.0253998786,81173.9107999019,112738.919899799,331557.391999755,349006.395900156,333950.329300016,266910.320200026,231836.620400194,335647.125599906,345868.773699738,344000.391500071,254692.002899945,347373.403199948,NA,NA,NA,NA,NA,331550.23009982,206107.840599958,260241.860399954,347753.11659975,290162.714699749,331459.771099966,331406.330700032,347668.890600093,4066.59650010988,348565.864900127,4066.62099994719,348257.588599809,206107.021499891,299521.36129979,299488.238799851,4862.26380011067,NA,NA,122306.141799781,9,78410.2869001217,11,0,70,1,22,"geographie",5,3,3,3,3,3
75,96,6584.66449170373,"a","speed","es2000he","0","b","a","0","0","0",41,3,700,"Wed Apr 12 10:09:57 2023",3,"sehr schwer","speed","Experiment.osexp","Bild_s1_b_14.png",1080,"he",2000,"es","blaue","C:/Users/steff/Documents/Universität/Master Psychologie/SS 2022/Masterarbeit/Experiment/subject-12.csv",0,1,0,"l",-10,-10,"l","l",605.687000323087,605.687000323087,12,NA,350175.818699878,331459.837500006,206107.907900121,299455.011699814,350782.227300107,349867.277199868,16494.9489999563,299525.626699906,NA,4066.48619985208,NA,294452.048299834,349874.654999934,349322.03359995,347753.190999851,290162.789499853,331557.252499741,260248.931100126,4878.91309987754,33120.3319998458,45220.4132000916,62312.0253998786,81173.9107999019,112738.919899799,331557.391999755,350782.322600018,333950.329300016,266910.320200026,231836.620400194,335647.125599906,345868.773699738,344000.391500071,254692.002899945,349021.395000163,NA,NA,NA,NA,NA,331550.23009982,206107.840599958,260241.860399954,347753.11659975,290162.714699749,331459.771099966,331406.330700032,349316.724900156,4066.59650010988,350175.902499817,4066.62099994719,349867.196599953,206107.021499891,299521.36129979,299488.238799851,4862.26380011067,NA,NA,122306.141799781,9,79015.9739004448,12,0,70,1,22,"geographie",5,3,3,3,3,3
76.9230769230769,96,6144.10526158575,"a","speed","es2000he","1","o","l","0","0","1",42,3,700,"Wed Apr 12 10:09:57 2023",3,"sehr schwer","speed","Experiment.osexp","Bild_s1_o_13.png",1080,"he",2000,"es","blaue","C:/Users/steff/Documents/Universität/Master Psychologie/SS 2022/Masterarbeit/Experiment/subject-12.csv",0,0,0,"l",-20,-20,"l","l",857.394500169903,857.394500169903,12,NA,351956.11849986,331459.837500006,206107.907900121,299455.011699814,352814.25860012,351647.563899867,16494.9489999563,299525.626699906,NA,4066.48619985208,NA,294452.048299834,351654.794199858,351109.932799824,347753.190999851,290162.789499853,331557.252499741,260248.931100126,4878.91309987754,33120.3319998458,45220.4132000916,62312.0253998786,81173.9107999019,112738.919899799,331557.391999755,352814.354300033,333950.329300016,266910.320200026,231836.620400194,335647.125599906,345868.773699738,350809.59679978,254692.002899945,349021.395000163,NA,NA,NA,NA,NA,331550.23009982,206107.840599958,260241.860399954,347753.11659975,290162.714699749,331459.771099966,331406.330700032,351104.497499764,4066.59650010988,351956.200699788,4066.62099994719,351647.372399922,206107.021499891,299521.36129979,299488.238799851,4862.26380011067,NA,NA,122306.141799781,10,79873.3684006147,13,0,70,1,22,"geographie",5,3,3,3,3,3
71.4285714285714,96,5736.00920718828,"a","speed","es2000he","0","b","a","0","0","0",43,3,700,"Wed Apr 12 10:09:57 2023",3,"sehr schwer","speed","Experiment.osexp","Bild_s1_b_23.png",1080,"he",2000,"es","blaue","C:/Users/steff/Documents/Universität/Master Psychologie/SS 2022/Masterarbeit/Experiment/subject-12.csv",0,1,0,"l",-30,-30,"l","l",430.760500021279,430.760500021279,12,NA,353982.626699843,331459.837500006,206107.907900121,299455.011699814,354414.252699818,353674.640799873,16494.9489999563,299525.626699906,NA,4066.48619985208,NA,294452.048299834,353681.867300067,353140.907300171,347753.190999851,290162.789499853,331557.252499741,260248.931100126,4878.91309987754,33120.3319998458,45220.4132000916,62312.0253998786,81173.9107999019,112738.919899799,331557.391999755,354414.354099892,333950.329300016,266910.320200026,231836.620400194,352840.341200121,345868.773699738,350809.59679978,254692.002899945,349021.395000163,NA,NA,NA,NA,NA,331550.23009982,206107.840599958,260241.860399954,347753.11659975,290162.714699749,331459.771099966,331406.330700032,353135.565400124,4066.59650010988,353982.823300175,4066.62099994719,353674.560700078,206107.021499891,299521.36129979,299488.238799851,4862.26380011067,NA,NA,122306.141799781,10,80304.128900636,14,0,70,1,22,"geographie",5,3,3,3,3,3
66.6666666666667,96,5387.7784067144,"a","speed","es2000he","0","b","a","0","0","0",44,3,700,"Wed Apr 12 10:09:57 2023",3,"sehr schwer","speed","Experiment.osexp","Bild_s1_b_10.png",1080,"he",2000,"es","blaue","C:/Users/steff/Documents/Universität/Master Psychologie/SS 2022/Masterarbeit/Experiment/subject-12.csv",0,1,0,"l",-40,-40,"l","l",512.547200080007,512.547200080007,12,NA,355580.968599766,331459.837500006,206107.907900121,299455.011699814,356094.516899902,355271.302199923,16494.9489999563,299525.626699906,NA,4066.48619985208,NA,294452.048299834,355278.592099901,354738.787100185,347753.190999851,290162.789499853,331557.252499741,260248.931100126,4878.91309987754,33120.3319998458,45220.4132000916,62312.0253998786,81173.9107999019,112738.919899799,331557.391999755,356094.626800157,333950.329300016,266910.320200026,231836.620400194,352840.341200121,345868.773699738,354432.311300188,254692.002899945,349021.395000163,NA,NA,NA,NA,NA,331550.23009982,206107.840599958,260241.860399954,347753.11659975,290162.714699749,331459.771099966,331406.330700032,354733.15879982,4066.59650010988,355581.048700027,4066.62099994719,355271.225600038,206107.021499891,299521.36129979,299488.238799851,4862.26380011067,NA,NA,122306.141799781,10,80816.676100716,15,0,70,1,22,"geographie",5,3,3,3,3,3
68.75,96,5078.2312937954,"a","speed","es2000he","1","b","a","0","1","0",45,3,700,"Wed Apr 12 10:09:57 2023",3,"sehr schwer","speed","Experiment.osexp","Bild_s1_b_11.png",1080,"he",2000,"es","blaue","C:/Users/steff/Documents/Universität/Master Psychologie/SS 2022/Masterarbeit/Experiment/subject-12.csv",0,0,0,"l",-35,-35,"a","a",435.024600010365,435.024600010365,12,NA,357274.449899793,331459.837500006,206107.907900121,299455.011699814,357710.36399994,356965.644699987,16494.9489999563,299525.626699906,NA,4066.48619985208,NA,294452.048299834,356973.0002,356419.358199928,347753.190999851,290162.789499853,331557.252499741,260248.931100126,4878.91309987754,33120.3319998458,45220.4132000916,62312.0253998786,81173.9107999019,112738.919899799,331557.391999755,357710.441200063,333950.329300016,266910.320200026,231836.620400194,352840.341200121,345868.773699738,356117.974000052,254692.002899945,349021.395000163,NA,NA,NA,NA,NA,331550.23009982,206107.840599958,260241.860399954,347753.11659975,290162.714699749,331459.771099966,331406.330700032,356413.438099902,4066.59650010988,357274.562200066,4066.62099994719,356965.566399973,206107.021499891,299521.36129979,299488.238799851,4862.26380011067,NA,NA,122306.141799781,11,81251.7007007264,16,0,70,1,22,"geographie",5,3,3,3,3,3
70.5882352941177,96,4804.57076476887,"a","speed","es2000he","1","b","a","0","1","0",46,3,700,"Wed Apr 12 10:09:57 2023",3,"sehr schwer","speed","Experiment.osexp","Bild_s1_b_1.png",1080,"he",2000,"es","blaue","C:/Users/steff/Documents/Universität/Master Psychologie/SS 2022/Masterarbeit/Experiment/subject-12.csv",0,0,0,"l",-30,-30,"a","a",426.002300344408,426.002300344408,12,NA,358883.500599768,331459.837500006,206107.907900121,299455.011699814,359310.358399991,358575.497199781,16494.9489999563,299525.626699906,NA,4066.48619985208,NA,294452.048299834,358582.849599887,358034.651000053,347753.190999851,290162.789499853,331557.252499741,260248.931100126,4878.91309987754,33120.3319998458,45220.4132000916,62312.0253998786,81173.9107999019,112738.919899799,331557.391999755,359310.435099993,333950.329300016,266910.320200026,231836.620400194,352840.341200121,345868.773699738,356117.974000052,254692.002899945,357733.871399891,NA,NA,NA,NA,NA,331550.23009982,206107.840599958,260241.860399954,347753.11659975,290162.714699749,331459.771099966,331406.330700032,358029.301600065,4066.59650010988,358883.583299816,4066.62099994719,358575.416099746,206107.021499891,299521.36129979,299488.238799851,4862.26380011067,NA,NA,122306.141799781,12,81677.7030010708,17,0,70,1,22,"geographie",5,3,3,3,3,3
72.2222222222222,96,4570.99603895201,"a","speed","es2000he","1","o","l","0","1","0",47,3,700,"Wed Apr 12 10:09:57 2023",3,"sehr schwer","speed","Experiment.osexp","Bild_s1_o_22.png",1080,"he",2000,"es","blaue","C:/Users/steff/Documents/Universität/Master Psychologie/SS 2022/Masterarbeit/Experiment/subject-12.csv",0,0,0,"l",-25,-25,"l","l",600.225700065494,600.225700065494,12,NA,360485.169199761,331459.837500006,206107.907900121,299455.011699814,361086.255500093,360176.652899943,16494.9489999563,299525.626699906,NA,4066.48619985208,NA,294452.048299834,360183.987500146,359639.135099947,347753.190999851,290162.789499853,331557.252499741,260248.931100126,4878.91309987754,33120.3319998458,45220.4132000916,62312.0253998786,81173.9107999019,112738.919899799,331557.391999755,361086.331400089,333950.329300016,266910.320200026,231836.620400194,352840.341200121,345868.773699738,356117.974000052,254692.002899945,359338.395299856,NA,NA,NA,NA,NA,331550.23009982,206107.840599958,260241.860399954,347753.11659975,290162.714699749,331459.771099966,331406.330700032,359633.71359976,4066.59650010988,360485.358799808,4066.62099994719,360176.570599899,206107.021499891,299521.36129979,299488.238799851,4862.26380011067,NA,NA,122306.141799781,13,82277.9287011363,18,0,70,1,22,"geographie",5,3,3,3,3,3
68.4210526315789,96,4368.70230006446,"a","speed","es2000he","0","b","a","0","0","0",48,3,700,"Wed Apr 12 10:09:57 2023",2,"eher schwer","speed","Experiment.osexp","Bild_s2_b_24.png",1080,"he",2000,"es","blaue","C:/Users/steff/Documents/Universität/Master Psychologie/SS 2022/Masterarbeit/Experiment/subject-12.csv",0,0,1,"l",-35,-35,"l","l",727.415000088513,727.415000088513,12,NA,362309.966799803,331459.837500006,206107.907900121,299455.011699814,363038.192399777,362001.969899982,16494.9489999563,299525.626699906,NA,4066.48619985208,NA,294452.048299834,362009.108100087,361415.105000138,361491.154000163,290162.789499853,331557.252499741,260248.931100126,4878.91309987754,33120.3319998458,45220.4132000916,62312.0253998786,81173.9107999019,112738.919899799,331557.391999755,363038.28850016,333950.329300016,266910.320200026,231836.620400194,352840.341200121,345868.773699738,356117.974000052,254692.002899945,361114.471700042,NA,NA,NA,NA,NA,331550.23009982,206107.840599958,260241.860399954,361490.984099917,290162.714699749,331459.771099966,331406.330700032,361409.733399749,4066.59650010988,362310.13550004,4066.62099994719,362001.891300082,206107.021499891,299521.36129979,299488.238799851,4862.26380011067,NA,NA,122306.141799781,13,83005.3437012248,19,0,70,1,22,"geographie",5,3,3,3,3,3
70,96,4171.99856005609,"a","speed","es2000he","1","o","l","0","1","0",49,3,700,"Wed Apr 12 10:09:57 2023",2,"eher schwer","speed","Experiment.osexp","Bild_s2_o_10.png",1080,"he",2000,"es","blaue","C:/Users/steff/Documents/Universität/Master Psychologie/SS 2022/Masterarbeit/Experiment/subject-12.csv",0,0,0,"l",-30,-30,"l","l",434.627499897033,434.627499897033,12,NA,364202.769099735,331459.837500006,206107.907900121,299455.011699814,364638.210100122,363894.922399893,16494.9489999563,299525.626699906,NA,4066.48619985208,NA,294452.048299834,363902.166800108,363357.294700108,361491.154000163,290162.789499853,331557.252499741,260248.931100126,4878.91309987754,33120.3319998458,45220.4132000916,62312.0253998786,81173.9107999019,112738.919899799,331557.391999755,364638.286099769,333950.329300016,266910.320200026,231836.620400194,352840.341200121,363056.783999782,356117.974000052,254692.002899945,361114.471700042,NA,NA,NA,NA,NA,331550.23009982,206107.840599958,260241.860399954,361490.984099917,290162.714699749,331459.771099966,331406.330700032,363351.752299815,4066.59650010988,364202.952799853,4066.62099994719,363894.844499882,206107.021499891,299521.36129979,299488.238799851,4862.26380011067,NA,NA,122306.141799781,14,83439.9712011218,20,0,70,1,22,"geographie",5,3,3,3,3,3
71.4285714285714,96,4002.61293338346,"a","speed","es2000he","1","b","a","0","1","0",50,3,700,"Wed Apr 12 10:09:57 2023",2,"eher schwer","speed","Experiment.osexp","Bild_s2_b_11.png",1080,"he",2000,"es","blaue","C:/Users/steff/Documents/Universität/Master Psychologie/SS 2022/Masterarbeit/Experiment/subject-12.csv",0,0,0,"l",-25,-25,"a","a",614.900399930775,614.900399930775,12,NA,365814.595699776,331459.837500006,206107.907900121,299455.011699814,366430.217400193,365504.947599955,16494.9489999563,299525.626699906,NA,4066.48619985208,NA,294452.048299834,365512.21519988,364968.98850007,361491.154000163,290162.789499853,331557.252499741,260248.931100126,4878.91309987754,33120.3319998458,45220.4132000916,62312.0253998786,81173.9107999019,112738.919899799,331557.391999755,366430.292500183,333950.329300016,266910.320200026,231836.620400194,352840.341200121,363056.783999782,356117.974000052,254692.002899945,364666.780599859,NA,NA,NA,NA,NA,331550.23009982,206107.840599958,260241.860399954,361490.984099917,290162.714699749,331459.771099966,331406.330700032,364962.040199898,4066.59650010988,365814.679299947,4066.62099994719,365504.869599827,206107.021499891,299521.36129979,299488.238799851,4862.26380011067,NA,NA,122306.141799781,15,84054.8716010526,21,0,70,1,22,"geographie",5,3,3,3,3,3
72.7272727272727,96,3842.96689550816,"a","speed","es2000he","1","o","l","0","1","0",51,3,700,"Wed Apr 12 10:09:57 2023",2,"eher schwer","speed","Experiment.osexp","Bild_s2_o_7.png",1080,"he",2000,"es","blaue","C:/Users/steff/Documents/Universität/Master Psychologie/SS 2022/Masterarbeit/Experiment/subject-12.csv",0,0,0,"l",-20,-20,"l","l",490.400100126863,490.400100126863,12,NA,367603.087699972,331459.837500006,206107.907900121,299455.011699814,368094.442099798,367295.159999747,16494.9489999563,299525.626699906,NA,4066.48619985208,NA,294452.048299834,367302.419600077,366749.97340003,361491.154000163,290162.789499853,331557.252499741,260248.931100126,4878.91309987754,33120.3319998458,45220.4132000916,62312.0253998786,81173.9107999019,112738.919899799,331557.391999755,368094.523299951,333950.329300016,266910.320200026,231836.620400194,352840.341200121,363056.783999782,356117.974000052,254692.002899945,366449.573399965,NA,NA,NA,NA,NA,331550.23009982,206107.840599958,260241.860399954,361490.984099917,290162.714699749,331459.771099966,331406.330700032,366744.774600025,4066.59650010988,367603.180199862,4066.62099994719,367295.080500189,206107.021499891,299521.36129979,299488.238799851,4862.26380011067,NA,NA,122306.141799781,16,84545.2717011794,22,0,70,1,22,"geographie",5,3,3,3,3,3
69.5652173913043,96,3705.89296092563,"a","speed","es2000he","0","b","a","0","0","0",52,3,700,"Wed Apr 12 10:09:57 2023",2,"eher schwer","speed","Experiment.osexp","Bild_s2_b_3.png",1080,"he",2000,"es","blaue","C:/Users/steff/Documents/Universität/Master Psychologie/SS 2022/Masterarbeit/Experiment/subject-12.csv",0,1,0,"l",-30,-30,"l","l",690.266400109977,690.266400109977,12,NA,369259.224100038,331459.837500006,206107.907900121,299455.011699814,369950.247999746,368951.318199746,16494.9489999563,299525.626699906,NA,4066.48619985208,NA,294452.048299834,368958.649499808,368410.412100144,361491.154000163,290162.789499853,331557.252499741,260248.931100126,4878.91309987754,33120.3319998458,45220.4132000916,62312.0253998786,81173.9107999019,112738.919899799,331557.391999755,369950.342699885,333950.329300016,266910.320200026,231836.620400194,352840.341200121,363056.783999782,356117.974000052,254692.002899945,368109.595300164,NA,NA,NA,NA,NA,331550.23009982,206107.840599958,260241.860399954,361490.984099917,290162.714699749,331459.771099966,331406.330700032,368405.024100095,4066.59650010988,369259.302599821,4066.62099994719,368951.238399837,206107.021499891,299521.36129979,299488.238799851,4862.26380011067,NA,NA,122306.141799781,16,85235.5381012894,23,0,70,1,22,"geographie",5,3,3,3,3,3
66.6666666666667,96,3574.86746671687,"a","speed","es2000he","0","o","l","0","0","0",53,3,700,"Wed Apr 12 10:09:57 2023",2,"eher schwer","speed","Experiment.osexp","Bild_s2_o_19.png",1080,"he",2000,"es","blaue","C:/Users/steff/Documents/Universität/Master Psychologie/SS 2022/Masterarbeit/Experiment/subject-12.csv",0,1,0,"l",-40,-40,"a","a",561.281099915504,561.281099915504,12,NA,371116.198400036,331459.837500006,206107.907900121,299455.011699814,371678.242099937,370807.411499787,16494.9489999563,299525.626699906,NA,4066.48619985208,NA,294452.048299834,370814.352499787,370277.625499759,361491.154000163,290162.789499853,331557.252499741,260248.931100126,4878.91309987754,33120.3319998458,45220.4132000916,62312.0253998786,81173.9107999019,112738.919899799,331557.391999755,371678.337200079,333950.329300016,266910.320200026,231836.620400194,352840.341200121,363056.783999782,369977.092400193,254692.002899945,368109.595300164,NA,NA,NA,NA,NA,331550.23009982,206107.840599958,260241.860399954,361490.984099917,290162.714699749,331459.771099966,331406.330700032,370272.238899954,4066.59650010988,371116.29239982,4066.62099994719,370807.333500125,206107.021499891,299521.36129979,299488.238799851,4862.26380011067,NA,NA,122306.141799781,16,85796.8192012049,24,0,70,1,22,"geographie",5,3,3,3,3,3
68,96,3470.16775203869,"a","speed","es2000he","1","b","a","0","0","1",54,3,700,"Wed Apr 12 10:09:57 2023",2,"eher schwer","speed","Experiment.osexp","Bild_s2_b_6.png",1080,"he",2000,"es","blaue","C:/Users/steff/Documents/Universität/Master Psychologie/SS 2022/Masterarbeit/Experiment/subject-12.csv",0,0,0,"l",-50,-50,"a","a",957.374599762261,957.374599762261,12,NA,372848.085599951,331459.837500006,206107.907900121,299455.011699814,373806.236899924,372540.199699812,16494.9489999563,299525.626699906,NA,4066.48619985208,NA,294452.048299834,372547.547399998,372005.525100045,361491.154000163,290162.789499853,331557.252499741,260248.931100126,4878.91309987754,33120.3319998458,45220.4132000916,62312.0253998786,81173.9107999019,112738.919899799,331557.391999755,373806.336699985,333950.329300016,266910.320200026,231836.620400194,352840.341200121,363056.783999782,371704.511700198,254692.002899945,368109.595300164,NA,NA,NA,NA,NA,331550.23009982,206107.840599958,260241.860399954,361490.984099917,290162.714699749,331459.771099966,331406.330700032,372000.185799785,4066.59650010988,372848.169500008,4066.62099994719,372540.121600032,206107.021499891,299521.36129979,299488.238799851,4862.26380011067,NA,NA,122306.141799781,17,86754.1938009672,25,0,70,1,22,"geographie",5,3,3,3,3,3
65.3846153846154,96,3352.17183849846,"a","speed","es2000he","0","b","a","0","0","0",55,3,700,"Wed Apr 12 10:09:57 2023",2,"eher schwer","speed","Experiment.osexp","Bild_s2_b_15.png",1080,"he",2000,"es","blaue","C:/Users/steff/Documents/Universität/Master Psychologie/SS 2022/Masterarbeit/Experiment/subject-12.csv",0,1,0,"l",-60,-60,"l","l",402.273999992758,402.273999992758,12,NA,374971.113500185,331459.837500006,206107.907900121,299455.011699814,375374.224099796,374663.323000073,16494.9489999563,299525.626699906,NA,4066.48619985208,NA,294452.048299834,374670.54839991,374121.58099981,361491.154000163,290162.789499853,331557.252499741,260248.931100126,4878.91309987754,33120.3319998458,45220.4132000916,62312.0253998786,81173.9107999019,112738.919899799,331557.391999755,375374.325099867,333950.329300016,266910.320200026,231836.620400194,373820.877599996,363056.783999782,371704.511700198,254692.002899945,368109.595300164,NA,NA,NA,NA,NA,331550.23009982,206107.840599958,260241.860399954,361490.984099917,290162.714699749,331459.771099966,331406.330700032,374116.231599823,4066.59650010988,374971.293299925,4066.62099994719,374663.239600137,206107.021499891,299521.36129979,299488.238799851,4862.26380011067,NA,NA,122306.141799781,17,87156.4678009599,26,0,70,1,22,"geographie",5,3,3,3,3,3
66.6666666666667,96,3249.59790373773,"a","speed","es2000he","1","o","l","0","1","0",56,3,700,"Wed Apr 12 10:09:57 2023",1,"eher leicht","speed","Experiment.osexp","Bild_s3_o_18.png",1080,"he",2000,"es","blaue","C:/Users/steff/Documents/Universität/Master Psychologie/SS 2022/Masterarbeit/Experiment/subject-12.csv",0,0,0,"l",-55,-55,"l","l",582.675599958748,582.675599958748,12,NA,376582.715400029,331459.837500006,206107.907900121,299455.011699814,377166.33570008,376274.395800196,16494.9489999563,299525.626699906,NA,4066.48619985208,NA,294452.048299834,376281.632999889,375701.310699806,375773.515400011,290162.789499853,331557.252499741,260248.931100126,4878.91309987754,33120.3319998458,45220.4132000916,62312.0253998786,81173.9107999019,112738.919899799,331557.391999755,377166.413299739,333950.329300016,266910.320200026,231836.620400194,373820.877599996,363056.783999782,375400.876800064,254692.002899945,368109.595300164,NA,NA,NA,NA,NA,331550.23009982,206107.840599958,260241.860399954,375773.443600163,290162.714699749,331459.771099966,331406.330700032,375695.883700159,4066.59650010988,376582.899599802,4066.62099994719,376274.313999806,206107.021499891,299521.36129979,299488.238799851,4862.26380011067,NA,NA,122306.141799781,18,87739.1434009187,27,0,70,1,22,"geographie",5,3,3,3,3,3
67.8571428571429,96,3154.79537503727,"a","speed","es2000he","1","b","a","0","1","0",57,3,700,"Wed Apr 12 10:09:57 2023",1,"eher leicht","speed","Experiment.osexp","Bild_s3_b_10.png",1080,"he",2000,"es","blaue","C:/Users/steff/Documents/Universität/Master Psychologie/SS 2022/Masterarbeit/Experiment/subject-12.csv",0,0,0,"l",-50,-50,"a","a",595.127100124955,595.127100124955,12,NA,378330.232399981,331459.837500006,206107.907900121,299455.011699814,378926.289000083,378021.713399794,16494.9489999563,299525.626699906,NA,4066.48619985208,NA,294452.048299834,378029.047199991,377477.582099847,375773.515400011,290162.789499853,331557.252499741,260248.931100126,4878.91309987754,33120.3319998458,45220.4132000916,62312.0253998786,81173.9107999019,112738.919899799,331557.391999755,378926.366500091,333950.329300016,266910.320200026,231836.620400194,373820.877599996,363056.783999782,375400.876800064,254692.002899945,377177.297899965,NA,NA,NA,NA,NA,331550.23009982,206107.840599958,260241.860399954,375773.443600163,290162.714699749,331459.771099966,331406.330700032,377472.285300028,4066.59650010988,378330.436899792,4066.62099994719,378021.633099765,206107.021499891,299521.36129979,299488.238799851,4862.26380011067,NA,NA,122306.141799781,19,88334.2705010436,28,0,70,1,22,"geographie",5,3,3,3,3,3
68.9655172413793,96,3065.52073797853,"a","speed","es2000he","1","o","l","0","1","0",58,3,700,"Wed Apr 12 10:09:57 2023",1,"eher leicht","speed","Experiment.osexp","Bild_s3_o_17.png",1080,"he",2000,"es","blaue","C:/Users/steff/Documents/Universität/Master Psychologie/SS 2022/Masterarbeit/Experiment/subject-12.csv",0,0,0,"l",-45,-45,"l","l",565.830900333822,565.830900333822,12,NA,380103.647199925,331459.837500006,206107.907900121,299455.011699814,380670.163500123,379794.908599928,16494.9489999563,299525.626699906,NA,4066.48619985208,NA,294452.048299834,379802.354599815,379254.912899807,375773.515400011,290162.789499853,331557.252499741,260248.931100126,4878.91309987754,33120.3319998458,45220.4132000916,62312.0253998786,81173.9107999019,112738.919899799,331557.391999755,380670.240699779,333950.329300016,266910.320200026,231836.620400194,373820.877599996,363056.783999782,375400.876800064,254692.002899945,378953.900499735,NA,NA,NA,NA,NA,331550.23009982,206107.840599958,260241.860399954,375773.443600163,290162.714699749,331459.771099966,331406.330700032,379249.487400055,4066.59650010988,380103.730499744,4066.62099994719,379794.824799988,206107.021499891,299521.36129979,299488.238799851,4862.26380011067,NA,NA,122306.141799781,20,88900.1014013775,29,0,70,1,22,"geographie",5,3,3,3,3,3
66.6666666666667,96,2976.81198338978,"a","speed","es2000he","0","b","a","0","0","0",59,3,700,"Wed Apr 12 10:09:57 2023",1,"eher leicht","speed","Experiment.osexp","Bild_s3_b_6.png",1080,"he",2000,"es","blaue","C:/Users/steff/Documents/Universität/Master Psychologie/SS 2022/Masterarbeit/Experiment/subject-12.csv",0,1,0,"l",-55,-55,"l","l",404.258100315928,404.258100315928,12,NA,381865.225200076,331459.837500006,206107.907900121,299455.011699814,382270.329200197,381557.467400096,16494.9489999563,299525.626699906,NA,4066.48619985208,NA,294452.048299834,381564.784099813,381000.614900142,375773.515400011,290162.789499853,331557.252499741,260248.931100126,4878.91309987754,33120.3319998458,45220.4132000916,62312.0253998786,81173.9107999019,112738.919899799,331557.391999755,382270.429200027,333950.329300016,266910.320200026,231836.620400194,373820.877599996,363056.783999782,375400.876800064,254692.002899945,380698.345399927,NA,NA,NA,NA,NA,331550.23009982,206107.840599958,260241.860399954,375773.443600163,290162.714699749,331459.771099966,331406.330700032,380995.160699822,4066.59650010988,381865.312799811,4066.62099994719,381557.332300115,206107.021499891,299521.36129979,299488.238799851,4862.26380011067,NA,NA,122306.141799781,20,89304.3595016934,30,0,70,1,22,"geographie",5,3,3,3,3,3
67.741935483871,96,2901.54109037511,"a","speed","es2000he","1","o","l","0","1","0",60,3,700,"Wed Apr 12 10:09:57 2023",1,"eher leicht","speed","Experiment.osexp","Bild_s3_o_1.png",1080,"he",2000,"es","blaue","C:/Users/steff/Documents/Universität/Master Psychologie/SS 2022/Masterarbeit/Experiment/subject-12.csv",0,0,0,"l",-50,-50,"l","l",643.414299935102,643.414299935102,12,NA,383433.954100125,331459.837500006,206107.907900121,299455.011699814,384078.132799827,383124.740900006,16494.9489999563,299525.626699906,NA,4066.48619985208,NA,294452.048299834,383131.907399744,382586.051799823,375773.515400011,290162.789499853,331557.252499741,260248.931100126,4878.91309987754,33120.3319998458,45220.4132000916,62312.0253998786,81173.9107999019,112738.919899799,331557.391999755,384078.213599976,333950.329300016,266910.320200026,231836.620400194,373820.877599996,363056.783999782,382284.565600101,254692.002899945,380698.345399927,NA,NA,NA,NA,NA,331550.23009982,206107.840599958,260241.860399954,375773.443600163,290162.714699749,331459.771099966,331406.330700032,382580.719400197,4066.59650010988,383434.148299973,4066.62099994719,383124.657399952,206107.021499891,299521.36129979,299488.238799851,4862.26380011067,NA,NA,122306.141799781,21,89947.7738016285,31,0,70,1,22,"geographie",5,3,3,3,3,3
68.75,96,2822.55584067025,"a","speed","es2000he","1","b","a","0","1","0",61,3,700,"Wed Apr 12 10:09:57 2023",1,"eher leicht","speed","Experiment.osexp","Bild_s3_b_15.png",1080,"he",2000,"es","blaue","C:/Users/steff/Documents/Universität/Master Psychologie/SS 2022/Masterarbeit/Experiment/subject-12.csv",0,0,0,"l",-45,-45,"a","a",374.013099819422,374.013099819422,12,NA,385239.454200026,331459.837500006,206107.907900121,299455.011699814,385614.233199973,384931.041699834,16494.9489999563,299525.626699906,NA,4066.48619985208,NA,294452.048299834,384938.367200084,384393.964100163,375773.515400011,290162.789499853,331557.252499741,260248.931100126,4878.91309987754,33120.3319998458,45220.4132000916,62312.0253998786,81173.9107999019,112738.919899799,331557.391999755,385614.320800174,333950.329300016,266910.320200026,231836.620400194,373820.877599996,363056.783999782,382284.565600101,254692.002899945,384093.583500013,NA,NA,NA,NA,NA,331550.23009982,206107.840599958,260241.860399954,375773.443600163,290162.714699749,331459.771099966,331406.330700032,384388.58210016,4066.59650010988,385239.534200169,4066.62099994719,384930.961399805,206107.021499891,299521.36129979,299488.238799851,4862.26380011067,NA,NA,122306.141799781,22,90321.7869014479,32,0,70,1,22,"geographie",5,3,3,3,3,3
69.6969696969697,96,2749.3338394261,"a","speed","es2000he","1","b","a","0","1","0",62,3,700,"Wed Apr 12 10:09:57 2023",1,"eher leicht","speed","Experiment.osexp","Bild_s3_b_5.png",1080,"he",2000,"es","blaue","C:/Users/steff/Documents/Universität/Master Psychologie/SS 2022/Masterarbeit/Experiment/subject-12.csv",0,0,0,"l",-40,-40,"a","a",406.229799613357,406.229799613357,12,NA,386775.150000118,331459.837500006,206107.907900121,299455.011699814,387182.252699975,386467.544499785,16494.9489999563,299525.626699906,NA,4066.48619985208,NA,294452.048299834,386474.507300183,385934.374799952,375773.515400011,290162.789499853,331557.252499741,260248.931100126,4878.91309987754,33120.3319998458,45220.4132000916,62312.0253998786,81173.9107999019,112738.919899799,331557.391999755,387182.327500079,333950.329300016,266910.320200026,231836.620400194,373820.877599996,363056.783999782,382284.565600101,254692.002899945,385633.756699972,NA,NA,NA,NA,NA,331550.23009982,206107.840599958,260241.860399954,375773.443600163,290162.714699749,331459.771099966,331406.330700032,385928.915699944,4066.59650010988,386775.343600195,4066.62099994719,386467.464699876,206107.021499891,299521.36129979,299488.238799851,4862.26380011067,NA,NA,122306.141799781,23,90728.0167010613,33,0,70,1,22,"geographie",5,3,3,3,3,3
70.5882352941177,96,2682.66316473155,"a","speed","es2000he","1","o","l","0","1","0",63,3,700,"Wed Apr 12 10:09:57 2023",1,"eher leicht","speed","Experiment.osexp","Bild_s3_o_21.png",1080,"he",2000,"es","blaue","C:/Users/steff/Documents/Universität/Master Psychologie/SS 2022/Masterarbeit/Experiment/subject-12.csv",0,0,0,"l",-35,-35,"l","l",482.530899811536,482.530899811536,12,NA,388346.821899991,331459.837500006,206107.907900121,299455.011699814,388830.249200109,388038.493900094,16494.9489999563,299525.626699906,NA,4066.48619985208,NA,294452.048299834,388045.75529974,387497.926100157,375773.515400011,290162.789499853,331557.252499741,260248.931100126,4878.91309987754,33120.3319998458,45220.4132000916,62312.0253998786,81173.9107999019,112738.919899799,331557.391999755,388830.328799784,333950.329300016,266910.320200026,231836.620400194,373820.877599996,363056.783999782,382284.565600101,254692.002899945,387197.078300174,NA,NA,NA,NA,NA,331550.23009982,206107.840599958,260241.860399954,375773.443600163,290162.714699749,331459.771099966,331406.330700032,387492.609099951,4066.59650010988,388347.016000189,4066.62099994719,388038.415799849,206107.021499891,299521.36129979,299488.238799851,4862.26380011067,NA,NA,122306.141799781,24,91210.5476008728,34,0,70,1,22,"geographie",5,3,3,3,3,3
71.4285714285714,96,2616.04988001553,"a","speed","es2000he","1","b","a","0","1","0",64,3,700,"Wed Apr 12 10:09:57 2023",2,"eher schwer","speed","Experiment.osexp","Bild_s2_b_22.png",1080,"he",2000,"es","blaue","C:/Users/steff/Documents/Universität/Master Psychologie/SS 2022/Masterarbeit/Experiment/subject-12.csv",0,0,0,"l",-30,-30,"a","a",351.198199670762,351.198199670762,12,NA,390030.179900117,331459.837500006,206107.907900121,299455.011699814,390382.268100046,389722.153100185,16494.9489999563,299525.626699906,NA,4066.48619985208,NA,294452.048299834,389729.554899968,389148.783499841,389219.84380018,290162.789499853,331557.252499741,260248.931100126,4878.91309987754,33120.3319998458,45220.4132000916,62312.0253998786,81173.9107999019,112738.919899799,331557.391999755,390382.343600038,333950.329300016,266910.320200026,231836.620400194,373820.877599996,363056.783999782,382284.565600101,254692.002899945,388848.207499832,NA,NA,NA,NA,NA,331550.23009982,206107.840599958,260241.860399954,389219.771099743,290162.714699749,331459.771099966,331406.330700032,389143.456399906,4066.59650010988,390030.3611001,4066.62099994719,389722.074599937,206107.021499891,299521.36129979,299488.238799851,4862.26380011067,NA,NA,122306.141799781,25,91561.7458005436,35,0,70,1,22,"geographie",5,3,3,3,3,3
72.2222222222222,96,2552.08884446054,"a","speed","es2000he","1","o","l","0","1","0",65,3,700,"Wed Apr 12 10:09:57 2023",2,"eher schwer","speed","Experiment.osexp","Bild_s2_o_14.png",1080,"he",2000,"es","blaue","C:/Users/steff/Documents/Universität/Master Psychologie/SS 2022/Masterarbeit/Experiment/subject-12.csv",0,0,0,"l",-25,-25,"l","l",313.452600035816,313.452600035816,12,NA,391556.024999823,331459.837500006,206107.907900121,299455.011699814,391870.367399883,391248.021599837,16494.9489999563,299525.626699906,NA,4066.48619985208,NA,294452.048299834,391254.876399878,390710.935200099,389219.84380018,290162.789499853,331557.252499741,260248.931100126,4878.91309987754,33120.3319998458,45220.4132000916,62312.0253998786,81173.9107999019,112738.919899799,331557.391999755,391870.444799773,333950.329300016,266910.320200026,231836.620400194,373820.877599996,363056.783999782,382284.565600101,254692.002899945,390410.220399965,NA,NA,NA,NA,NA,331550.23009982,206107.840599958,260241.860399954,389219.771099743,290162.714699749,331459.771099966,331406.330700032,390705.556700006,4066.59650010988,391556.117000058,4066.62099994719,391247.943299823,206107.021499891,299521.36129979,299488.238799851,4862.26380011067,NA,NA,122306.141799781,26,91875.1984005794,36,0,70,1,22,"geographie",5,3,3,3,3,3
70.2702702702703,96,2499.61414326586,"a","speed","es2000he","0","o","l","0","0","0",66,3,700,"Wed Apr 12 10:09:57 2023",2,"eher schwer","speed","Experiment.osexp","Bild_s2_o_25.png",1080,"he",2000,"es","blaue","C:/Users/steff/Documents/Universität/Master Psychologie/SS 2022/Masterarbeit/Experiment/subject-12.csv",0,1,0,"l",-35,-35,"a","a",610.524900257587,610.524900257587,12,NA,393050.906499848,331459.837500006,206107.907900121,299455.011699814,393662.275199778,392742.955800146,16494.9489999563,299525.626699906,NA,4066.48619985208,NA,294452.048299834,392749.867599923,392198.753799777,389219.84380018,290162.789499853,331557.252499741,260248.931100126,4878.91309987754,33120.3319998458,45220.4132000916,62312.0253998786,81173.9107999019,112738.919899799,331557.391999755,393662.372900173,333950.329300016,266910.320200026,231836.620400194,373820.877599996,363056.783999782,382284.565600101,254692.002899945,391898.213299923,NA,NA,NA,NA,NA,331550.23009982,206107.840599958,260241.860399954,389219.771099743,290162.714699749,331459.771099966,331406.330700032,392193.381799851,4066.59650010988,393050.993099809,4066.62099994719,392742.876700126,206107.021499891,299521.36129979,299488.238799851,4862.26380011067,NA,NA,122306.141799781,26,92485.723300837,37,0,70,1,22,"geographie",5,3,3,3,3,3
68.4210526315789,96,2444.49100791673,"a","speed","es2000he","0","b","a","0","0","0",67,3,700,"Wed Apr 12 10:09:57 2023",2,"eher schwer","speed","Experiment.osexp","Bild_s2_b_4.png",1080,"he",2000,"es","blaue","C:/Users/steff/Documents/Universität/Master Psychologie/SS 2022/Masterarbeit/Experiment/subject-12.csv",0,1,0,"l",-45,-45,"l","l",404.934999998659,404.934999998659,12,NA,394840.543400031,331459.837500006,206107.907900121,299455.011699814,395246.33549992,394531.238200143,16494.9489999563,299525.626699906,NA,4066.48619985208,NA,294452.048299834,394538.283899892,393991.116699763,389219.84380018,290162.789499853,331557.252499741,260248.931100126,4878.91309987754,33120.3319998458,45220.4132000916,62312.0253998786,81173.9107999019,112738.919899799,331557.391999755,395246.434899978,333950.329300016,266910.320200026,231836.620400194,373820.877599996,363056.783999782,393689.23150003,254692.002899945,391898.213299923,NA,NA,NA,NA,NA,331550.23009982,206107.840599958,260241.860399954,389219.771099743,290162.714699749,331459.771099966,331406.330700032,393984.554700088,4066.59650010988,394840.628799982,4066.62099994719,394531.159299891,206107.021499891,299521.36129979,299488.238799851,4862.26380011067,NA,NA,122306.141799781,26,92890.6583008356,38,0,70,1,22,"geographie",5,3,3,3,3,3
69.2307692307692,96,2395.16139745665,"a","speed","es2000he","1","b","a","0","1","0",68,3,700,"Wed Apr 12 10:09:57 2023",2,"eher schwer","speed","Experiment.osexp","Bild_s2_b_9.png",1080,"he",2000,"es","blaue","C:/Users/steff/Documents/Universität/Master Psychologie/SS 2022/Masterarbeit/Experiment/subject-12.csv",0,0,0,"l",-40,-40,"a","a",520.636199973524,520.636199973524,12,NA,396420.820899773,331459.837500006,206107.907900121,299455.011699814,396942.288700026,396113.067700062,16494.9489999563,299525.626699906,NA,4066.48619985208,NA,294452.048299834,396119.862100109,395573.6934999,389219.84380018,290162.789499853,331557.252499741,260248.931100126,4878.91309987754,33120.3319998458,45220.4132000916,62312.0253998786,81173.9107999019,112738.919899799,331557.391999755,396942.364899907,333950.329300016,266910.320200026,231836.620400194,373820.877599996,363056.783999782,395273.430800065,254692.002899945,391898.213299923,NA,NA,NA,NA,NA,331550.23009982,206107.840599958,260241.860399954,389219.771099743,290162.714699749,331459.771099966,331406.330700032,395568.32229998,4066.59650010988,396420.915000141,4066.62099994719,396112.990300171,206107.021499891,299521.36129979,299488.238799851,4862.26380011067,NA,NA,122306.141799781,27,93411.2945008092,39,0,70,1,22,"geographie",5,3,3,3,3,3
67.5,96,2349.19108751928,"a","speed","es2000he","0","o","l","0","0","0",69,3,700,"Wed Apr 12 10:09:57 2023",2,"eher schwer","speed","Experiment.osexp","Bild_s2_o_20.png",1080,"he",2000,"es","blaue","C:/Users/steff/Documents/Universität/Master Psychologie/SS 2022/Masterarbeit/Experiment/subject-12.csv",0,1,0,"l",-50,-50,"a","a",556.348999962211,556.348999962211,12,NA,398129.0099998,331459.837500006,206107.907900121,299455.011699814,398686.308399774,397821.189399809,16494.9489999563,299525.626699906,NA,4066.48619985208,NA,294452.048299834,397828.281399794,397270.538399927,389219.84380018,290162.789499853,331557.252499741,260248.931100126,4878.91309987754,33120.3319998458,45220.4132000916,62312.0253998786,81173.9107999019,112738.919899799,331557.391999755,398686.408699956,333950.329300016,266910.320200026,231836.620400194,373820.877599996,363056.783999782,395273.430800065,254692.002899945,396969.953999855,NA,NA,NA,NA,NA,331550.23009982,206107.840599958,260241.860399954,389219.771099743,290162.714699749,331459.771099966,331406.330700032,397265.217700042,4066.59650010988,398129.205999896,4066.62099994719,397821.107000113,206107.021499891,299521.36129979,299488.238799851,4862.26380011067,NA,NA,122306.141799781,27,93967.6435007714,40,0,70,1,22,"geographie",5,3,3,3,3,3
68.2926829268293,96,2308.08337563195,"a","speed","es2000he","1","o","l","0","1","0",70,3,700,"Wed Apr 12 10:09:57 2023",2,"eher schwer","speed","Experiment.osexp","Bild_s2_o_11.png",1080,"he",2000,"es","blaue","C:/Users/steff/Documents/Universität/Master Psychologie/SS 2022/Masterarbeit/Experiment/subject-12.csv",0,0,0,"l",-45,-45,"l","l",663.774900138378,663.774900138378,12,NA,399861.54899979,331459.837500006,206107.907900121,299455.011699814,400526.542800013,399553.940299898,16494.9489999563,299525.626699906,NA,4066.48619985208,NA,294452.048299834,399560.892499983,399014.7731998,389219.84380018,290162.789499853,331557.252499741,260248.931100126,4878.91309987754,33120.3319998458,45220.4132000916,62312.0253998786,81173.9107999019,112738.919899799,331557.391999755,400526.623299811,333950.329300016,266910.320200026,231836.620400194,373820.877599996,363056.783999782,398714.355099946,254692.002899945,396969.953999855,NA,NA,NA,NA,NA,331550.23009982,206107.840599958,260241.860399954,389219.771099743,290162.714699749,331459.771099966,331406.330700032,399009.468699805,4066.59650010988,399861.73949996,4066.62099994719,399553.860600106,206107.021499891,299521.36129979,299488.238799851,4862.26380011067,NA,NA,122306.141799781,28,94631.4184009098,41,0,70,1,22,"geographie",5,3,3,3,3,3
66.6666666666667,96,2272.42367144763,"a","speed","es2000he","0","o","l","0","0","0",71,3,700,"Wed Apr 12 10:09:57 2023",2,"eher schwer","speed","Experiment.osexp","Bild_s2_o_5.png",1080,"he",2000,"es","blaue","C:/Users/steff/Documents/Universität/Master Psychologie/SS 2022/Masterarbeit/Experiment/subject-12.csv",0,0,1,"l",-55,-55,"a","a",810.375799890608,810.375799890608,12,NA,401698.991000187,331459.837500006,206107.907900121,299455.011699814,402510.171500035,401390.42750001,16494.9489999563,299525.626699906,NA,4066.48619985208,NA,294452.048299834,401397.787000053,400843.168700114,389219.84380018,290162.789499853,331557.252499741,260248.931100126,4878.91309987754,33120.3319998458,45220.4132000916,62312.0253998786,81173.9107999019,112738.919899799,331557.391999755,402510.267700069,333950.329300016,266910.320200026,231836.620400194,373820.877599996,363056.783999782,398714.355099946,254692.002899945,400542.596200015,NA,NA,NA,NA,NA,331550.23009982,206107.840599958,260241.860399954,389219.771099743,290162.714699749,331459.771099966,331406.330700032,400837.774800137,4066.59650010988,401699.175599962,4066.62099994719,401390.347499866,206107.021499891,299521.36129979,299488.238799851,4862.26380011067,NA,NA,122306.141799781,28,95441.7942008004,42,0,70,1,22,"geographie",5,3,3,3,3,3
67.4418604651163,96,2242.69996745902,"a","speed","es2000he","1","o","l","0","0","1",72,3,700,"Wed Apr 12 10:09:57 2023",3,"sehr schwer","speed","Experiment.osexp","Bild_s1_o_16.png",1080,"he",2000,"es","blaue","C:/Users/steff/Documents/Universität/Master Psychologie/SS 2022/Masterarbeit/Experiment/subject-12.csv",0,0,0,"l",-65,-65,"l","l",994.304399937391,994.304399937391,12,NA,403723.162500188,331459.837500006,206107.907900121,299455.011699814,404718.318799976,403415.128599852,16494.9489999563,299525.626699906,NA,4066.48619985208,NA,294452.048299834,403422.542300075,402829.007399734,402899.915399961,290162.789499853,331557.252499741,260248.931100126,4878.91309987754,33120.3319998458,45220.4132000916,62312.0253998786,81173.9107999019,112738.919899799,331557.391999755,404718.417500146,333950.329300016,266910.320200026,231836.620400194,373820.877599996,402528.493000194,398714.355099946,254692.002899945,400542.596200015,NA,NA,NA,NA,NA,331550.23009982,206107.840599958,260241.860399954,402899.842800107,290162.714699749,331459.771099966,331406.330700032,402823.725199793,4066.59650010988,403723.247699905,4066.62099994719,403415.046699811,206107.021499891,299521.36129979,299488.238799851,4862.26380011067,NA,NA,122306.141799781,29,96436.0986007378,43,0,70,1,22,"geographie",5,3,3,3,3,3
68.1818181818182,96,2207.76910455474,"a","speed","es2000he","1","o","l","0","0","1",73,3,700,"Wed Apr 12 10:09:57 2023",3,"sehr schwer","speed","Experiment.osexp","Bild_s1_o_9.png",1080,"he",2000,"es","blaue","C:/Users/steff/Documents/Universität/Master Psychologie/SS 2022/Masterarbeit/Experiment/subject-12.csv",0,0,0,"l",-75,-75,"l","l",705.741999670863,705.741999670863,12,NA,405883.731199894,331459.837500006,206107.907900121,299455.011699814,406590.377400164,405575.973500032,16494.9489999563,299525.626699906,NA,4066.48619985208,NA,294452.048299834,405583.16460019,405036.222899798,402899.915399961,290162.789499853,331557.252499741,260248.931100126,4878.91309987754,33120.3319998458,45220.4132000916,62312.0253998786,81173.9107999019,112738.919899799,331557.391999755,406590.474899858,333950.329300016,266910.320200026,231836.620400194,404735.85359985,402528.493000194,398714.355099946,254692.002899945,400542.596200015,NA,NA,NA,NA,NA,331550.23009982,206107.840599958,260241.860399954,402899.842800107,290162.714699749,331459.771099966,331406.330700032,405030.808500014,4066.59650010988,405883.814800065,4066.62099994719,405575.895200018,206107.021499891,299521.36129979,299488.238799851,4862.26380011067,NA,NA,122306.141799781,30,97141.8406004086,44,0,70,1,22,"geographie",5,3,3,3,3,3
68.8888888888889,96,2167.502604456,"a","speed","es2000he","1","o","l","0","1","0",74,3,700,"Wed Apr 12 10:09:57 2023",3,"sehr schwer","speed","Experiment.osexp","Bild_s1_o_11.png",1080,"he",2000,"es","blaue","C:/Users/steff/Documents/Universität/Master Psychologie/SS 2022/Masterarbeit/Experiment/subject-12.csv",0,0,0,"l",-70,-70,"l","l",395.776600111276,395.776600111276,12,NA,407761.589999776,331459.837500006,206107.907900121,299455.011699814,408158.399799839,407453.594199847,16494.9489999563,299525.626699906,NA,4066.48619985208,NA,294452.048299834,407461.005799938,406907.686999999,402899.915399961,290162.789499853,331557.252499741,260248.931100126,4878.91309987754,33120.3319998458,45220.4132000916,62312.0253998786,81173.9107999019,112738.919899799,331557.391999755,408158.475699835,333950.329300016,266910.320200026,231836.620400194,406607.242700178,402528.493000194,398714.355099946,254692.002899945,400542.596200015,NA,NA,NA,NA,NA,331550.23009982,206107.840599958,260241.860399954,402899.842800107,290162.714699749,331459.771099966,331406.330700032,406902.248499915,4066.59650010988,407761.76750008,4066.62099994719,407453.513099812,206107.021499891,299521.36129979,299488.238799851,4862.26380011067,NA,NA,122306.141799781,31,97537.6172005199,45,0,70,1,22,"geographie",5,3,3,3,3,3
69.5652173913043,96,2133.77341740441,"a","speed","es2000he","1","o","l","0","1","0",75,3,700,"Wed Apr 12 10:09:57 2023",3,"sehr schwer","speed","Experiment.osexp","Bild_s1_o_10.png",1080,"he",2000,"es","blaue","C:/Users/steff/Documents/Universität/Master Psychologie/SS 2022/Masterarbeit/Experiment/subject-12.csv",0,0,0,"l",-65,-65,"l","l",615.96000008285,615.96000008285,12,NA,409317.413900048,331459.837500006,206107.907900121,299455.011699814,409934.527600184,409009.336899966,16494.9489999563,299525.626699906,NA,4066.48619985208,NA,294452.048299834,409016.507599968,408469.436499756,402899.915399961,290162.789499853,331557.252499741,260248.931100126,4878.91309987754,33120.3319998458,45220.4132000916,62312.0253998786,81173.9107999019,112738.919899799,331557.391999755,409934.605000075,333950.329300016,266910.320200026,231836.620400194,406607.242700178,402528.493000194,398714.355099946,254692.002899945,408168.963300064,NA,NA,NA,NA,NA,331550.23009982,206107.840599958,260241.860399954,402899.842800107,290162.714699749,331459.771099966,331406.330700032,408464.116299991,4066.59650010988,409317.59459991,4066.62099994719,409009.255399927,206107.021499891,299521.36129979,299488.238799851,4862.26380011067,NA,NA,122306.141799781,32,98153.5772006027,46,0,70,1,22,"geographie",5,3,3,3,3,3
70.2127659574468,96,2099.95267873115,"a","speed","es2000he","1","o","l","0","1","0",76,3,700,"Wed Apr 12 10:09:57 2023",3,"sehr schwer","speed","Experiment.osexp","Bild_s1_o_12.png",1080,"he",2000,"es","blaue","C:/Users/steff/Documents/Universität/Master Psychologie/SS 2022/Masterarbeit/Experiment/subject-12.csv",0,0,0,"l",-60,-60,"l","l",544.198699761182,544.198699761182,12,NA,411101.156000048,331459.837500006,206107.907900121,299455.011699814,411646.466599777,410793.213000055,16494.9489999563,299525.626699906,NA,4066.48619985208,NA,294452.048299834,410800.379800145,410246.488300152,402899.915399961,290162.789499853,331557.252499741,260248.931100126,4878.91309987754,33120.3319998458,45220.4132000916,62312.0253998786,81173.9107999019,112738.919899799,331557.391999755,411646.547200158,333950.329300016,266910.320200026,231836.620400194,406607.242700178,402528.493000194,398714.355099946,254692.002899945,409945.623999927,NA,NA,NA,NA,NA,331550.23009982,206107.840599958,260241.860399954,402899.842800107,290162.714699749,331459.771099966,331406.330700032,410241.109000053,4066.59650010988,411101.345899981,4066.62099994719,410793.130099773,206107.021499891,299521.36129979,299488.238799851,4862.26380011067,NA,NA,122306.141799781,33,98697.7759003639,47,0,70,1,22,"geographie",5,3,3,3,3,3
70.8333333333333,96,2070.45575209001,"a","speed","es2000he","1","o","l","0","1","0",77,3,700,"Wed Apr 12 10:09:57 2023",3,"sehr schwer","speed","Experiment.osexp","Bild_s1_o_15.png",1080,"he",2000,"es","blaue","C:/Users/steff/Documents/Universität/Master Psychologie/SS 2022/Masterarbeit/Experiment/subject-12.csv",0,0,0,"l",-55,-55,"l","l",684.100199956447,684.100199956447,12,NA,412817.240399774,331459.837500006,206107.907900121,299455.011699814,413502.34259991,412507.892199792,16494.9489999563,299525.626699906,NA,4066.48619985208,NA,294452.048299834,412516.710099764,411962.464400101,402899.915399961,290162.789499853,331557.252499741,260248.931100126,4878.91309987754,33120.3319998458,45220.4132000916,62312.0253998786,81173.9107999019,112738.919899799,331557.391999755,413502.419500146,333950.329300016,266910.320200026,231836.620400194,406607.242700178,402528.493000194,398714.355099946,254692.002899945,411661.644499749,NA,NA,NA,NA,NA,331550.23009982,206107.840599958,260241.860399954,402899.842800107,290162.714699749,331459.771099966,331406.330700032,411957.092400175,4066.59650010988,412817.443199921,4066.62099994719,412507.814299781,206107.021499891,299521.36129979,299488.238799851,4862.26380011067,NA,NA,122306.141799781,34,99381.8761003204,48,0,70,1,22,"geographie",5,3,3,3,3,3
71.4285714285714,96,2037.95944082988,"a","speed","es2000he","1","b","a","0","1","0",78,3,700,"Wed Apr 12 10:09:57 2023",3,"sehr schwer","speed","Experiment.osexp","Bild_s1_b_12.png",1080,"he",2000,"es","blaue","C:/Users/steff/Documents/Universität/Master Psychologie/SS 2022/Masterarbeit/Experiment/subject-12.csv",0,0,0,"l",-50,-50,"a","a",478.13650034368,478.13650034368,12,NA,414671.319900081,331459.837500006,206107.907900121,299455.011699814,415150.334099773,414363.411500119,16494.9489999563,299525.626699906,NA,4066.48619985208,NA,294452.048299834,414370.770500042,413824.759999756,402899.915399961,290162.789499853,331557.252499741,260248.931100126,4878.91309987754,33120.3319998458,45220.4132000916,62312.0253998786,81173.9107999019,112738.919899799,331557.391999755,415150.410300121,333950.329300016,266910.320200026,231836.620400194,406607.242700178,402528.493000194,398714.355099946,254692.002899945,413521.707999986,NA,NA,NA,NA,NA,331550.23009982,206107.840599958,260241.860399954,402899.842800107,290162.714699749,331459.771099966,331406.330700032,413816.87780004,4066.59650010988,414671.398299746,4066.62099994719,414363.333799876,206107.021499891,299521.36129979,299488.238799851,4862.26380011067,NA,NA,122306.141799781,35,99860.012600664,49,0,70,1,22,"geographie",5,3,3,3,3,3
72,96,2005.65042001195,"a","speed","es2000he","1","o","l","0","1","0",79,3,700,"Wed Apr 12 10:09:57 2023",3,"sehr schwer","speed","Experiment.osexp","Bild_s1_o_4.png",1080,"he",2000,"es","blaue","C:/Users/steff/Documents/Universität/Master Psychologie/SS 2022/Masterarbeit/Experiment/subject-12.csv",0,0,0,"l",-45,-45,"l","l",422.508399933577,422.508399933577,12,NA,416326.83419995,331459.837500006,206107.907900121,299455.011699814,416750.176799949,416018.754499964,16494.9489999563,299525.626699906,NA,4066.48619985208,NA,294452.048299834,416026.084899902,415479.267599992,402899.915399961,290162.789499853,331557.252499741,260248.931100126,4878.91309987754,33120.3319998458,45220.4132000916,62312.0253998786,81173.9107999019,112738.919899799,331557.391999755,416750.252800062,333950.329300016,266910.320200026,231836.620400194,406607.242700178,402528.493000194,398714.355099946,254692.002899945,415178.675699979,NA,NA,NA,NA,NA,331550.23009982,206107.840599958,260241.860399954,402899.842800107,290162.714699749,331459.771099966,331406.330700032,415473.932499997,4066.59650010988,416327.026300132,4066.62099994719,416018.677600194,206107.021499891,299521.36129979,299488.238799851,4862.26380011067,NA,NA,122306.141799781,36,100282.521000598,50,0,70,1,22,"geographie",5,3,3,3,3,3
100,96,1971.0379501339,"a","accuracy","es2000he","1","b","a","1","0","0",80,4,700,"Wed Apr 12 10:09:57 2023",3,"sehr schwer","speed","Experiment.osexp","Bild_s1_b_22.png",1080,"he",2000,"es","blaue","C:/Users/steff/Documents/Universität/Master Psychologie/SS 2022/Masterarbeit/Experiment/subject-12.csv",0,0,0,"l",-40,5,"a","a",770.029000006616,770.029000006616,12,NA,426283.371299971,331459.837500006,206107.907900121,422198.169999756,427054.00949996,425975.048399996,16494.9489999563,299525.626699906,NA,4066.48619985208,417202.756799757,294452.048299834,425982.228800189,417066.144700162,425486.787099857,290162.789499853,422313.321799971,260248.931100126,4878.91309987754,33120.3319998458,45220.4132000916,62312.0253998786,81173.9107999019,112738.919899799,422313.482599799,427054.076000117,425486.004500184,266910.320200026,231836.620400194,406607.242700178,402528.493000194,398714.355099946,254692.002899945,416765.515199862,NA,NA,NA,NA,NA,422305.83279999,206107.840599958,260241.860399954,425486.746400129,290162.714699749,331459.771099966,331406.330700032,417060.84659975,4066.59650010988,426283.495099749,4066.62099994719,425974.848499987,206107.021499891,299521.36129979,299488.238799851,4862.26380011067,NA,NA,122306.141799781,2,3942.07590026781,2,0,25,1,22,"geographie",5,3,3,3,3,3
